sep=,
DeviceTag:,bei
FirmwareVersion:,1.6.0
AppVersion:,2021.0
StartTime: ,2021-08-30_17:05:05_000 GMT+8
© Xsens Technologies B. V. 2005-2021

PacketCounter,SampleTimeFine,Euler_X,Euler_Y,Euler_Z,Acc_X,Acc_Y,Acc_Z,Gyr_X,Gyr_Y,Gyr_Z
0,2974023062,-179.98799133300781,-0.25218504667282,-136.18397521972656,0.00000000000000,0.00000000000000,0.00000000000000,0.00000000000000,0.00000000000000,0.00000000000000
1,2974031395,-179.99078369140625,-0.24755834043026,-136.18243408203125,0.06049161031842,0.01594381593168,-9.65323448181152,0.02204104885459,0.24006941914558,0.04952512308955
2,2974039728,-179.99169921875000,-0.24237281084061,-136.18182373046875,0.05363916978240,0.01804662309587,-9.63489341735840,0.24772804975510,0.17401030659676,0.16130565106869
3,2974048061,-179.99977111816406,-0.26641678810120,-136.16616821289062,0.04653620347381,0.02678005956113,-9.65200328826904,0.20587441325188,0.19898419082165,0.17383101582527
4,2974056394,179.99850463867188,-0.26148015260696,-136.16581726074219,0.05190818011761,-0.01355463732034,-9.65191745758057,0.14732027053833,0.20379963517189,0.19214516878128
5,2974064727,179.97691345214844,-0.27151873707771,-136.13684082031250,0.04624301940203,-0.00052236521151,-9.64390468597412,0.10618381202221,0.20946039259434,0.09268511086702
6,2974073060,179.97520446777344,-0.26682209968567,-136.13632202148438,0.05682933703065,0.00814708787948,-9.65461444854736,0.15121363103390,0.23146302998066,0.17290888726711
7,2974081393,179.97035217285156,-0.26993614435196,-136.12271118164062,0.03159410879016,-0.00655915681273,-9.66386318206787,0.11220315843821,0.24514104425907,0.08999562263489
8,2974089726,179.96913146972656,-0.26512721180916,-136.12222290039062,0.05727996677160,0.01619403623044,-9.66573715209961,0.20940920710564,0.21970610320568,0.17749384045601
9,2974098059,179.96519470214844,-0.26185646653175,-136.12539672851562,0.05994797497988,0.03354683518410,-9.65424251556396,-0.04413332790136,0.10551784187555,0.22644262015820
10,2974106392,179.96237182617188,-0.25765269994736,-136.12446594238281,0.04597132280469,0.01303248014301,-9.66379165649414,0.01663644425571,0.29068315029144,0.12306360155344
11,2974114725,179.95538330078125,-0.25812825560570,-136.12237548828125,0.06654290109873,-0.00547192478552,-9.63837051391602,0.22367630898952,0.26937207579613,0.14253038167953
12,2974123058,179.95359802246094,-0.25353759527206,-136.12147521972656,0.06435412913561,-0.00754624931142,-9.64446449279785,0.14434902369976,0.24706208705902,0.12652149796486
13,2974131391,179.94834899902344,-0.25353935360909,-136.12879943847656,0.04395421966910,0.01047891471535,-9.63058090209961,0.09137878566980,0.17582890391350,0.21929626166821
14,2974139724,179.94706726074219,-0.24876424670219,-136.12861633300781,0.03223809599876,-0.00560757657513,-9.65115928649902,0.20408141613007,0.22382999956608,0.21004955470562
15,2974148057,179.94435119628906,-0.24865894019604,-136.13137817382812,0.03436940908432,-0.00492115598172,-9.65769672393799,0.10728521645069,0.21378923952579,0.20062348246574
16,2974156390,179.94198608398438,-0.24370892345905,-136.13037109375000,0.06208676472306,0.00602293945849,-9.61967945098877,0.07168143987656,0.20321054756641,0.11320211738348
17,2974164723,179.94068908691406,-0.24089445173740,-136.13716125488281,0.05113567411900,0.00470657087862,-9.63274097442627,0.05971959233284,0.23389641940594,0.06489367038012
18,2974173056,179.93821716308594,-0.23593565821648,-136.13697814941406,0.05415431410074,0.02167357131839,-9.65306186676025,0.06005256995559,0.20064912736416,0.21127900481224
19,2974181389,179.93739318847656,-0.23407375812531,-136.14364624023438,0.04924732446671,0.02165880799294,-9.62729740142822,0.10961611568928,0.23645779490471,0.16087019443512
20,2974189722,179.93440246582031,-0.22932155430317,-136.14323425292969,0.04177260026336,0.03063607402146,-9.66453647613525,-0.00327862193808,0.22626332938671,0.18328264355659
21,2974198055,179.93244934082031,-0.22713755071163,-136.14492797851562,0.04841759428382,0.01456318795681,-9.65541553497314,0.12319166958332,0.18156650662422,0.11627582460642
22,2974206388,179.93103027343750,-0.22161744534969,-136.14413452148438,0.04989108070731,0.00550053641200,-9.65281200408936,0.18866164982319,0.13348859548569,0.13879074156284
23,2974214721,179.92889404296875,-0.21941043436527,-136.14587402343750,0.05089229717851,0.01953420788050,-9.63146781921387,0.20031611621380,0.23248758912086,0.16717128455639
24,2974223054,179.92758178710938,-0.21448047459126,-136.14508056640625,0.03677276521921,0.01503527630121,-9.64945697784424,0.19836944341660,0.20502912998199,0.13669036328793
25,2974231387,179.92475891113281,-0.21106365323067,-136.14456176757812,0.05830262228847,-0.01215284876525,-9.63523101806641,0.09283879399300,0.07618953287601,0.20689897239208
26,2974239720,179.92282104492188,-0.20658729970455,-136.14422607421875,0.04614299163222,-0.00653769867495,-9.66138744354248,0.12316603958607,0.25933131575584,0.19027534127235
27,2974248053,179.92120361328125,-0.20442396402359,-136.14308166503906,0.04268816858530,-0.01208115182817,-9.64066600799561,0.15231505036354,0.23412691056728,0.13794545829296
28,2974256386,179.91925048828125,-0.19946481287479,-136.14265441894531,0.03877532109618,0.01846825145185,-9.64445590972900,0.12124496698380,0.20136629045010,0.18031139671803
29,2974264719,179.91828918457031,-0.19669887423515,-136.14617919921875,0.06820235401392,0.01796794123948,-9.64614486694336,0.12337096035480,0.18699672818184,0.06404839456081
30,2974273052,179.91587829589844,-0.19140717387199,-136.14561462402344,0.03176589682698,0.00914162024856,-9.63814830780029,0.06650736182928,0.16125440597534,0.16550637781620
31,2974281385,179.91532897949219,-0.18961615860462,-136.14080810546875,0.05044184997678,-0.00261794053949,-9.64910602569580,0.19842067360878,0.26547876000404,0.17029625177383
32,2974289718,179.91310119628906,-0.18393708765507,-136.14047241210938,0.04240902140737,0.00276076095179,-9.63623809814453,0.09035421907902,0.11499510705471,0.19155605137348
33,2974298051,179.91171264648438,-0.18122629821301,-136.14480590820312,0.06076323613524,-0.00776117295027,-9.62604618072510,0.08899665623903,0.18817496299744,0.16773481667042
34,2974306384,179.90943908691406,-0.17570646107197,-136.14379882812500,0.04627889394760,0.02357576973736,-9.65473556518555,0.08364327996969,0.13364227116108,0.11166524887085
35,2974314717,179.90884399414062,-0.17355790734291,-136.14179992675781,0.04692997783422,0.02876902930439,-9.63174819946289,0.13074786961079,0.23084828257561,0.11922144889832
36,2974323050,179.90785217285156,-0.16895553469658,-136.14125061035156,0.03804597258568,0.00385538232513,-9.64876270294189,0.23766168951988,0.24416768550873,0.16632604598999
37,2974331383,179.90643310546875,-0.16686435043812,-136.13577270507812,0.04880367591977,0.00650150328875,-9.64848995208740,0.09025175124407,0.23889115452766,0.16806781291962
38,2974339716,179.90492248535156,-0.16176983714104,-136.13471984863281,0.06138569861650,-0.00363364419900,-9.64963531494141,0.17608506977558,0.18530617654324,0.10492870956659
39,2974348049,179.90359497070312,-0.15941178798676,-136.13499450683594,0.06034853681922,0.00972786638886,-9.63874912261963,0.09788479655981,0.21558219194412,0.09670654684305
40,2974356382,179.90167236328125,-0.15457190573215,-136.13452148437500,0.05927535891533,0.01077177375555,-9.66102218627930,0.12787905335426,0.21481376886368,0.17690470814705
41,2974364715,179.90019226074219,-0.15260721743107,-136.13313293457031,0.04549923539162,0.02175894752145,-9.63967895507812,0.05692763254046,0.22009031474590,0.16348282992840
42,2974373048,179.89707946777344,-0.14766524732113,-136.13319396972656,0.06554149836302,0.02323958650231,-9.64728927612305,-0.01723838038743,0.20310808718204,0.24147818982601
43,2974381381,179.89607238769531,-0.14610697329044,-136.13369750976562,0.05660760030150,0.02746691741049,-9.63640308380127,0.13297629356384,0.25495126843452,0.17951735854149
44,2974389714,179.89422607421875,-0.14170612394810,-136.13323974609375,0.06180056184530,0.01497090049088,-9.64970684051514,0.13520474731922,0.26829633116722,0.17882579565048
45,2974398047,179.89300537109375,-0.14010120928288,-136.12808227539062,0.04245927557349,0.01860454492271,-9.63924980163574,0.13927739858627,0.21775944530964,0.14232549071312
46,2974406380,179.89154052734375,-0.13568268716335,-136.12783813476562,0.03855382278562,0.02446987666190,-9.64362716674805,0.18046508729458,0.26601663231850,0.20310808718204
47,2974414713,179.88909912109375,-0.13406768441200,-136.14468383789062,0.05082095041871,0.00521442247555,-9.64311981201172,0.01958208158612,0.21537728607655,0.21217550337315
48,2974423046,179.88610839843750,-0.13024428486824,-136.14404296875000,0.05660760402679,-0.00376210757531,-9.64394378662109,-0.00233089528047,0.33681434392929,0.15876981616020
49,2974431379,179.88330078125000,-0.12889645993710,-136.13764953613281,0.05267353728414,0.01607959158719,-9.65659523010254,-0.04400525242090,0.25231301784515,0.09552828222513
50,2974439712,179.88088989257812,-0.12365318834782,-136.13690185546875,0.05039177834988,-0.00024319665681,-9.64692497253418,0.06517542153597,0.16655655205250,0.14253041148186
51,2974448045,179.88003540039062,-0.12211138755083,-136.13591003417969,0.05336736142635,0.00486393319443,-9.64847660064697,0.17874893546104,0.21909135580063,0.20144315063953
52,2974456378,179.87791442871094,-0.11692747473717,-136.13543701171875,0.05999089404941,-0.01148031279445,-9.63933563232422,0.09988272190094,0.17442014813423,0.17693033814430
53,2974464711,179.87609863281250,-0.11563395708799,-136.12184143066406,0.04406145215034,-0.00005050971959,-9.65292453765869,0.03162077069283,0.24321997165680,0.16806779801846
54,2974473044,179.87312316894531,-0.11107915639877,-136.12068176269531,0.04018467292190,0.01883343607187,-9.63794803619385,0.00008964980952,0.24908560514450,0.09209597855806
55,2974481377,179.87170410156250,-0.10925221443176,-136.12242126464844,0.06527668982744,0.02648656629026,-9.63349819183350,0.06258837878704,0.17595699429512,0.10928312689066
56,2974489710,179.86981201171875,-0.10468433052301,-136.12236022949219,0.07476151734591,0.01570049114525,-9.62274837493896,0.12808397412300,0.24731823801994,0.22949072718620
57,2974498043,179.86813354492188,-0.10358391702175,-136.12477111816406,0.06342425942421,0.01114412955940,-9.64512920379639,0.04570859670639,0.25817868113518,0.10782311856747
58,2974506376,179.86697387695312,-0.09859942644835,-136.12451171875000,0.04517020285130,-0.00962772686034,-9.65442085266113,0.21719589829445,0.19780591130257,0.20364595949650
59,2974514709,179.86738586425781,-0.09658224135637,-136.14202880859375,0.03694467619061,-0.00057928625029,-9.66619586944580,0.30758854746819,0.12075831741095,0.14570657908916
60,2974523042,179.86480712890625,-0.09123289585114,-136.14147949218750,0.04160075634718,-0.01806863956153,-9.65051460266113,0.04816756770015,0.15438981354237,0.16806781291962
61,2974531375,179.86470031738281,-0.08964114636183,-136.14323425292969,0.05467613413930,0.01065756287426,-9.63291263580322,0.20841021835804,0.18289843201637,0.17741698026657
62,2974539708,179.86337280273438,-0.08419536799192,-136.14222717285156,0.04323893412948,0.01348310895264,-9.63881397247314,0.19611538946629,0.14160828292370,0.11169087141752
63,2974548041,179.86230468750000,-0.08271250873804,-136.14791870117188,0.06353171169758,0.01515727024525,-9.64008712768555,0.07726535201073,0.19806209206581,0.18640761077404
64,2974556374,179.86042785644531,-0.07799971103668,-136.14730834960938,0.05961179360747,-0.00035048931022,-9.65584468841553,0.12956960499287,0.22913214564323,0.15833441913128
65,2974564707,179.86047363281250,-0.07668311148882,-136.15443420410156,0.08294436335564,0.00892674829811,-9.64184665679932,0.21437834203243,0.21399411559105,0.10054867714643
66,2974573040,179.85916137695312,-0.07186372578144,-136.15406799316406,0.06863152980804,0.02244562096894,-9.64081668853760,0.19849750399590,0.21571028232574,0.18743214011192
67,2974581373,179.85848999023438,-0.07062135636806,-136.13734436035156,0.04481971263885,0.01253893412650,-9.63563728332520,0.10777190327644,0.19227325916290,0.14332446455956
68,2974589706,179.85639953613281,-0.06555619090796,-136.13708496093750,0.04336075484753,0.00133082142565,-9.64545822143555,0.10351993143559,0.18689425289631,0.19573117792606
69,2974598039,179.85578918457031,-0.06432283669710,-136.13743591308594,0.04260930418968,0.02637228742242,-9.63638019561768,0.13346299529076,0.18858481943607,0.12170604616404
70,2974606372,179.85380554199219,-0.05851941555738,-136.13682556152344,0.05539201572537,0.00305459857918,-9.63987255096436,0.11581476032734,0.09913989156485,0.15741227567196
71,2974614705,179.85308837890625,-0.05766286700964,-136.12393188476562,0.06184348091483,0.01259615644813,-9.65464305877686,0.11627582460642,0.23955714702606,0.14967679977417
72,2974623038,179.85105895996094,-0.05279071256518,-136.12394714355469,0.05579217523336,0.01499235909432,-9.67248153686523,0.11176770925522,0.20935796201229,0.23371706902981
73,2974631371,179.85078430175781,-0.05166063830256,-136.13082885742188,0.06145025789738,0.01489242352545,-9.63246154785156,0.17600820958614,0.19898419082165,0.19291362166405
74,2974639704,179.84877014160156,-0.04650518670678,-136.13021850585938,0.05033455416560,-0.00395552208647,-9.63275527954102,0.11479020118713,0.17677664756775,0.16243268549442
75,2974648037,179.84828186035156,-0.04539515450597,-136.13941955566406,0.03723054751754,0.00683811772615,-9.63692474365234,0.15218697488308,0.19227322936058,0.11414983123541
76,2974656370,179.84594726562500,-0.04049479588866,-136.13832092285156,0.05715121701360,0.01932698115706,-9.65265464782715,0.07560040801764,0.20695020258427,0.10136833041906
77,2974664703,179.84538269042969,-0.03956941142678,-136.12568664550781,0.03568553179502,0.01330428756773,-9.63087368011475,0.12252566963434,0.21824607253075,0.11338140815496
78,2974673036,179.84320068359375,-0.03445399925113,-136.12528991699219,0.04466950520873,0.02116526290774,-9.63187503814697,0.09289001673460,0.17905631661415,0.18205317854881
79,2974681369,179.84182739257812,-0.03354901447892,-136.12322998046875,0.06037710234523,0.00115139235277,-9.64741706848145,0.03753766044974,0.22370192408562,0.08968824148178
80,2974689702,179.84034729003906,-0.02781666629016,-136.12231445312500,0.05547029525042,0.02698767557740,-9.64556598663330,0.17790368199348,0.10585082322359,0.12147551774979
81,2974698035,179.83923339843750,-0.02629343047738,-136.12864685058594,0.05645023658872,0.01421985216439,-9.63845634460449,0.07027263939381,0.14560410380363,0.12552253901958
82,2974706368,179.83787536621094,-0.02113256230950,-136.12886047363281,0.05828851833940,0.01703091897070,-9.63448619842529,0.19250379502773,0.17480435967445,0.25779446959496
83,2974714701,179.83744812011719,-0.02010689117014,-136.13122558593750,0.04120037704706,0.00713853724301,-9.65410614013672,0.15797579288483,0.19775469601154,0.20303124189377
84,2974723034,179.83541870117188,-0.01481847930700,-136.13087463378906,0.04502692446113,0.00710960896686,-9.63204002380371,0.10859154164791,0.15815508365631,0.18735532462597
85,2974731367,179.83468627929688,-0.01384911872447,-136.11335754394531,0.04232337325811,0.01552166882902,-9.63878536224365,0.11197263002396,0.20139192044735,0.10403221100569
86,2974739700,179.83294677734375,-0.00922599807382,-136.11256408691406,0.05486923828721,0.01716647110879,-9.65869712829590,0.14396481215954,0.23866063356400,0.13735632598400
87,2974748033,179.83123779296875,-0.00862602889538,-136.11288452148438,0.04951912537217,0.02783846110106,-9.64738845825195,0.00052509177476,0.24972596764565,0.15034276247025
88,2974756366,179.83001708984375,-0.00375641742721,-136.11174011230469,0.04474103450775,0.01463471632451,-9.62716197967529,0.20989583432674,0.20892249047756,0.09611741453409
89,2974764699,179.82855224609375,-0.00295893265866,-136.11549377441406,0.05508404225111,-0.00241766101681,-9.63090229034424,0.03510431200266,0.22070504724979,0.21076674759388
90,2974773032,179.82748413085938,0.00161776773166,-136.11479187011719,0.04974086955190,0.00949897523969,-9.64407825469971,0.22726230323315,0.24306626617908,0.14760202169418
91,2974781365,179.82618713378906,0.00271744816564,-136.10757446289062,0.05300971865654,0.02316805906594,-9.65044403076172,0.04609281569719,0.18238615989685,0.19890733063221
92,2974789698,179.82479858398438,0.00837728753686,-136.10670471191406,0.06167896464467,0.02492050454021,-9.64678192138672,0.18684302270412,0.11230561137199,0.12769976258278
93,2974798031,179.82316589355469,0.00943222828209,-136.10757446289062,0.05525571107864,-0.00090125820134,-9.65751838684082,0.01041218545288,0.18287283182144,0.14030197262764
94,2974806364,179.81976318359375,0.01475673355162,-136.10714721679688,0.05596373975277,0.00764669617638,-9.64535808563232,-0.05340568348765,0.15362137556076,0.18525496125221
95,2974814697,179.81886291503906,0.01513864938170,-136.10656738281250,0.05105689167976,0.00095107714878,-9.64675235748291,0.09470864385366,0.25556603074074,0.09176300466061
96,2974823030,179.81709289550781,0.02056655474007,-136.10586547851562,0.04595701768994,-0.00095848093042,-9.65163135528564,0.14304269850254,0.14048124849796,0.14977921545506
97,2974831363,179.81636047363281,0.02127318829298,-136.10557556152344,0.04740189015865,-0.00512858852744,-9.63234710693359,0.10976981371641,0.21040815114975,0.20257019996643
98,2974839696,179.81465148925781,0.02512307837605,-136.10519409179688,0.04917579516768,0.01997788995504,-9.64465045928955,0.14826799929142,0.32846415042877,0.18863603472710
99,2974848029,179.81344604492188,0.02578303031623,-136.10098266601562,0.04476249217987,0.01489937212318,-9.61542415618896,0.04002224281430,0.21517236530781,0.19427114725113
100,2974856362,179.81219482421875,0.03076183795929,-136.10032653808594,0.05028448626399,0.00614429218695,-9.63319110870361,0.20374841988087,0.19311852753162,0.15559366345406
101,2974864695,179.81199645996094,0.03156602010131,-136.09898376464844,0.05039177834988,0.00351919862442,-9.65001487731934,0.16233019530773,0.19683256745338,0.16386705636978
102,2974873028,179.80918884277344,0.03690443187952,-136.09811401367188,0.04406871274114,-0.01262434571981,-9.63058090209961,0.01625223085284,0.15029151737690,0.13059416413307
103,2974881361,179.80897521972656,0.03787174448371,-136.09034729003906,0.03482719138265,-0.00171668233816,-9.65834045410156,0.15546558797359,0.17265275120735,0.15917965769768
104,2974889694,179.80752563476562,0.04202819243073,-136.08934020996094,0.06207952275872,-0.00411288486794,-9.64592361450195,0.17769874632359,0.29160523414612,0.11397054046392
105,2974898027,179.80761718750000,0.04282526671886,-136.08935546875000,0.05151477456093,0.01030724681914,-9.63351345062256,0.17997841536999,0.19644837081432,0.15175153315067
106,2974906360,179.80599975585938,0.04811728000641,-136.08897399902344,0.05059205740690,0.01034301053733,-9.62815570831299,0.16117757558823,0.15579858422279,0.19283677637577
107,2974914693,179.80549621582031,0.04961627721786,-136.09074401855469,0.04760932177305,-0.01222420856357,-9.63079547882080,0.10121464729309,0.10490310192108,0.20356911420822
108,2974923026,179.80334472656250,0.05474602803588,-136.08985900878906,0.04339643195271,0.00745350448415,-9.64348411560059,0.09591250121593,0.17347240447998,0.13026118278503
109,2974931359,179.80255126953125,0.05556689947844,-136.10073852539062,0.05196524038911,-0.00438514305279,-9.64850425720215,0.06269083917141,0.18315458297729,0.11461089551449
110,2974939692,179.80029296875000,0.06028685718775,-136.09982299804688,0.06371752172709,0.00294697121717,-9.64007949829102,0.08443733304739,0.22193455696106,0.12764854729176
111,2974948025,179.80076599121094,0.06107982620597,-136.08520507812500,0.05043469741940,0.02153005637228,-9.64475059509277,0.20077717304230,0.18218123912811,0.15316030383110
112,2974956358,179.79957580566406,0.06552552431822,-136.08444213867188,0.03313912078738,0.01572194881737,-9.64023017883301,0.20843586325645,0.25605273246765,0.14214619994164
113,2974964691,179.79917907714844,0.06678043305874,-136.09002685546875,0.04210163280368,0.00994245149195,-9.64991474151611,0.10528730601072,0.12034848332405,0.14350374042988
114,2974973024,179.79776000976562,0.07189862430096,-136.08987426757812,0.04388984292746,0.00947036407888,-9.63512229919434,0.18364124000072,0.17331871390343,0.21617132425308
115,2974981357,179.79763793945312,0.07229400426149,-136.09207153320312,0.05464056879282,0.00960626825690,-9.63467216491699,0.13612686097622,0.22664755582809,0.17188432812691
116,2974989690,179.79525756835938,0.07724105566740,-136.09098815917969,0.06109258532524,0.01030053105205,-9.64463043212891,0.06497050821781,0.19386133551598,0.10508239269257
117,2974998023,179.79554748535156,0.07736001163721,-136.09623718261719,0.05634273216128,-0.00449942471460,-9.64869213104248,0.18397423624992,0.25582215189934,0.20912741124630
118,2975006356,179.79338073730469,0.08200964331627,-136.09588623046875,0.07459700107574,-0.00957050360739,-9.65257549285889,0.09312055259943,0.22772334516048,0.19301606714725
119,2975014689,179.79315185546875,0.08252859115601,-136.09925842285156,0.06103501468897,0.00494228862226,-9.63894081115723,0.11438037455082,0.19908665120602,0.15285296738148
120,2975023022,179.79084777832031,0.08770716190338,-136.09834289550781,0.04185128584504,0.00410573184490,-9.63887786865234,0.07918640971184,0.16532707214355,0.12378078699112
121,2975031355,179.79013061523438,0.08773963153362,-136.10563659667969,0.04193711653352,0.01238157134503,-9.65000724792480,0.05044722929597,0.24455188214779,0.08441171050072
122,2975039688,179.78855895996094,0.09201697260141,-136.10476684570312,0.04043501988053,0.00598692940548,-9.64631652832031,0.16161301732063,0.27364969253540,0.12974891066551
123,2975048021,179.78915405273438,0.09160506725311,-136.10498046875000,0.06365314871073,0.01286796480417,-9.64910602569580,0.20710389316082,0.29777827858925,0.10236728936434
124,2975056354,179.78697204589844,0.09662868827581,-136.10363769531250,0.06403210759163,0.00075793411816,-9.63030719757080,0.08948332816362,0.18256545066833,0.06871018558741
125,2975064687,179.78585815429688,0.09634423255920,-136.10029602050781,0.06082777678967,0.01075072307140,-9.63288402557373,-0.00330423610285,0.27813217043877,0.12137304991484
126,2975073020,179.78485107421875,0.10111698508263,-136.09979248046875,0.05539876967669,0.00317586236633,-9.64693164825439,0.23338410258293,0.21071550250053,0.17050114274025
127,2975081353,179.78453063964844,0.10104345530272,-136.09416198730469,0.04296712577343,0.00861917622387,-9.63066673278809,0.08858682215214,0.24442382156849,0.16568568348885
128,2975089686,179.78268432617188,0.10570579767227,-136.09339904785156,0.06086334213614,0.00864030420780,-9.63801860809326,0.12941591441631,0.22477771341801,0.13717702031136
129,2975098019,179.78283691406250,0.10609076172113,-136.09196472167969,0.04924017190933,0.01396234985441,-9.64726066589355,0.14470762014389,0.18469145894051,0.09232650697231
130,2975106352,179.78063964843750,0.11146476119757,-136.09150695800781,0.05145738273859,0.01384764257818,-9.62615394592285,0.08799771219492,0.13886757194996,0.17680227756500
131,2975114685,179.78012084960938,0.11160741746426,-136.08830261230469,0.03820333257318,0.01159475836903,-9.65285491943359,0.06312627345324,0.20910179615021,0.12721307575703
132,2975123018,179.77827453613281,0.11610715836287,-136.08737182617188,0.05735847353935,0.02122217416763,-9.63225269317627,0.12890362739563,0.24183677136898,0.12032286822796
133,2975131351,179.77790832519531,0.11651826649904,-136.08230590820312,0.03642929345369,0.00116562622134,-9.64781951904297,0.08292607963085,0.17580328881741,0.15208451449871
134,2975139684,179.77664184570312,0.12121575325727,-136.08210754394531,0.04539193958044,0.02303215488791,-9.65395641326904,0.19898419082165,0.21796432137489,0.20782108604908
135,2975148017,179.77635192871094,0.12122008949518,-136.08906555175781,0.05710829794407,0.02200929820538,-9.65135955810547,0.09227527678013,0.22142225503922,0.13733072578907
136,2975156350,179.77461242675781,0.12526953220367,-136.08863830566406,0.05998388677835,0.03223815187812,-9.65323448181152,0.14209496974945,0.29667687416077,0.17974789440632
137,2975164683,179.77465820312500,0.12494750320911,-136.08158874511719,0.04873213171959,0.02828199043870,-9.62369823455811,0.13348858058453,0.25605270266533,0.12823764979839
138,2975173016,179.77333068847656,0.13025377690792,-136.08108520507812,0.04236594215035,0.02166569791734,-9.63988494873047,0.19048026204109,0.14465641975403,0.16834957897663
139,2975181349,179.77316284179688,0.12952007353306,-136.07771301269531,0.03104321658611,0.02686577290297,-9.62898445129395,0.11573791503906,0.30033969879150,0.18948130309582
140,2975189682,179.77224731445312,0.13498538732529,-136.07699584960938,0.04565659537911,0.01290372852236,-9.65010070800781,0.24063293635845,0.12483096867800,0.14598833024502
141,2975198015,179.77148437500000,0.13524323701859,-136.08206176757812,0.04755210131407,0.01288226991892,-9.64596652984619,0.04806510731578,0.18300090730190,0.16729937493801
142,2975206348,179.77040100097656,0.13946530222893,-136.08146667480469,0.05735149607062,-0.00822576973587,-9.63452911376953,0.21978293359280,0.27334231138229,0.16371339559555
143,2975214681,179.77044677734375,0.13995249569416,-136.07664489746094,0.05141485482454,-0.00962749402970,-9.62774085998535,0.14432340860367,0.15438979864120,0.14117285609245
144,2975223014,179.76834106445312,0.14413337409496,-136.07626342773438,0.06257306784391,0.00062229734613,-9.65341949462891,0.09686022251844,0.27697947621346,0.18569038808346
145,2975231347,179.76852416992188,0.14395283162594,-136.07214355468750,0.06802370399237,-0.02604325301945,-9.64455699920654,0.15203326940536,0.22751840949059,0.20379963517189
146,2975239680,179.76647949218750,0.14833356440067,-136.07141113281250,0.06187924370170,0.00251064798795,-9.63757610321045,0.10457012057304,0.25303024053574,0.14629569649696
147,2975248013,179.76640319824219,0.14740799367428,-136.07182312011719,0.06161458790302,0.00971356034279,-9.64437103271484,0.11071752756834,0.30835694074631,0.07998044788837
148,2975256346,179.76454162597656,0.15179879963398,-136.07177734375000,0.06587751954794,0.01919077150524,-9.63778400421143,0.12631659209728,0.25069931149483,0.22895282506943
149,2975264679,179.76443481445312,0.15192501246929,-136.06475830078125,0.04385408014059,0.01295379828662,-9.63934326171875,0.10528730601072,0.17347238957882,0.24642172455788
150,2975273012,179.76292419433594,0.15630517899990,-136.06324768066406,0.03670123592019,0.02876158244908,-9.62935066223145,0.16491724550724,0.25285091996193,0.05290620028973
151,2975281345,179.76390075683594,0.15643271803856,-136.06994628906250,0.04650063067675,0.03306043893099,-9.64502239227295,0.23863501846790,0.16888745129108,0.17787805199623
152,2975289678,179.76226806640625,0.16111013293266,-136.06910705566406,0.05639301240444,0.02843254990876,-9.63572311401367,0.15041959285736,0.21524921059608,0.13533280789852
153,2975298011,179.76280212402344,0.16046845912933,-136.06596374511719,0.05881067365408,0.02679454907775,-9.63892841339111,0.19117182493210,0.26084256172180,0.20784668624401
154,2975306344,179.76113891601562,0.16525557637215,-136.06539916992188,0.04806710407138,0.01200247090310,-9.65752506256104,0.14842167496681,0.20205788314342,0.16845202445984
155,2975314677,179.76123046875000,0.16429537534714,-136.06388854980469,0.04569962993264,-0.00499244732782,-9.63401508331299,0.13781738281250,0.29257860779762,0.15123924612999
156,2975323010,179.75981140136719,0.16959457099438,-136.06358337402344,0.04215170443058,-0.01545014046133,-9.62995147705078,0.17959420382977,0.13968722522259,0.19949646294117
157,2975331343,179.75987243652344,0.17041824758053,-136.06814575195312,0.03169424831867,0.01205969322473,-9.65769004821777,0.13220788538456,0.07790570706129,0.18878972530365
158,2975339676,179.75801086425781,0.17532941699028,-136.06744384765625,0.03013492748141,0.00748187350109,-9.62335586547852,0.12606047093868,0.18394863605499,0.15152102708817
159,2975348009,179.75769042968750,0.17528016865253,-136.06114196777344,0.06339564919472,-0.00175244652200,-9.64050197601318,0.08046711236238,0.18297527730465,0.15290416777134
160,2975356342,179.75561523437500,0.18062186241150,-136.06085205078125,0.05092087760568,-0.01392686925828,-9.66022968292236,0.09714199602604,0.13256648182869,0.19885613024235
161,2975364675,179.75561523437500,0.18033891916275,-136.05908203125000,0.04052071273327,-0.00475689768791,-9.63054466247559,0.11517439782619,0.20915302634239,0.22923459112644
162,2975373008,179.75375366210938,0.18527702987194,-136.05809020996094,0.04301020503044,0.01618711091578,-9.64688873291016,0.12526641786098,0.17961980402470,0.11868355423212
163,2975381341,179.75242614746094,0.18502253293991,-136.06210327148438,0.03293168917298,0.00683096516877,-9.62239074707031,-0.05148461088538,0.20385088026524,0.20351788401604
164,2975389674,179.75032043457031,0.18990299105644,-136.06217956542969,0.04444061219692,0.00959196221083,-9.64757537841797,0.09504162520170,0.18604901432991,0.24465435743332
165,2975398007,179.75096130371094,0.18962648510933,-136.05583190917969,0.03847485035658,0.01651559211314,-9.63496494293213,0.18507565557957,0.20518280565739,0.14611639082432
166,2975406340,179.74949645996094,0.19380833208561,-136.05513000488281,0.05946158245206,0.00371232558973,-9.65968513488770,0.17175623774529,0.26952576637268,0.15157222747803
167,2975414673,179.75021362304688,0.19390626251698,-136.04925537109375,0.04714405164123,0.01246713008732,-9.65427017211914,0.19273431599140,0.16081897914410,0.15951265394688
168,2975423006,179.74789428710938,0.19887390732765,-136.04824829101562,0.05360340327024,0.01221705600619,-9.63658142089844,0.06643051654100,0.17434328794479,0.11476458609104
169,2975431339,179.74884033203125,0.19935567677021,-136.04632568359375,0.04670091345906,-0.00114445481449,-9.63743972778320,0.21870714426041,0.10854031890631,0.13128575682640
170,2975439672,179.74630737304688,0.20302449166775,-136.04556274414062,0.04557076096535,-0.01468478702009,-9.64074516296387,0.04260927811265,0.33033397793770,0.14719219505787
171,2975448005,179.74613952636719,0.20227217674255,-136.04212951660156,0.03543518483639,-0.00179536361247,-9.63570213317871,0.08436048775911,0.25292778015137,0.13558895885944
172,2975456338,179.74418640136719,0.20762865245342,-136.04162597656250,0.05675780773163,0.00100139796268,-9.62112426757812,0.11053822934628,0.12700818479061,0.17961980402470
173,2975464671,179.74327087402344,0.20709919929504,-136.03880310058594,0.04801701009274,-0.02306735515594,-9.64560890197754,-0.01098850648850,0.22521317005157,0.23312793672085
174,2975473004,179.74064636230469,0.21171872317791,-136.03848266601562,0.04753057658672,0.00772461155429,-9.63058853149414,0.02959725074470,0.21197061240673,0.20182737708092
175,2975481337,179.74021911621094,0.21130703389645,-136.04846191406250,0.04468381032348,-0.00285398424603,-9.65201759338379,0.03756327182055,0.20823092758656,0.26696434617043
176,2975489670,179.73794555664062,0.21688456833363,-136.04804992675781,0.05336736142635,0.03113632462919,-9.63134574890137,0.07355127483606,0.09821778535843,0.18955814838409
177,2975498003,179.73716735839844,0.21573939919472,-136.04716491699219,0.04821016266942,0.00793965533376,-9.64439964294434,-0.00858076848090,0.29268103837967,0.16145932674408
178,2975506336,179.73481750488281,0.22055940330029,-136.04650878906250,0.02787451818585,0.00483500212431,-9.64201164245605,0.06399716436863,0.18725284934044,0.15907719731331
179,2975514669,179.73583984375000,0.22041597962379,-136.03826904296875,0.06269440054893,0.03337495401502,-9.63831329345703,0.20997267961502,0.16822147369385,0.23435743153095
180,2975523002,179.73387145996094,0.22503159940243,-136.03720092773438,0.05441896244884,0.02527124248445,-9.63417243957520,0.10907821357250,0.21125338971615,0.10959050059319
181,2975531335,179.73368835449219,0.22554616630077,-136.03207397460938,0.05642877891660,0.02006372436881,-9.63286972045898,0.06691719591618,0.08694753050804,0.19114625453949
182,2975539668,179.73214721679688,0.23011331260204,-136.03173828125000,0.05358194559813,0.00962772686034,-9.65113067626953,0.16048596799374,0.21681165695190,0.20062346756458
183,2975548001,179.73257446289062,0.22946089506149,-136.02703857421875,0.04920440539718,0.01122281048447,-9.64038753509521,0.14440023899078,0.22080750763416,0.25336319208145
184,2975556334,179.73129272460938,0.23404553532600,-136.02642822265625,0.04532756656408,0.01346165034920,-9.62015914916992,0.19112063944340,0.21378923952579,0.16658218204975
185,2975564667,179.73129272460938,0.23320940136909,-136.02636718750000,0.03423350676894,0.00147348560859,-9.65590858459473,0.08981630951166,0.23994134366512,0.22498261928558
186,2975573000,179.72885131835938,0.23777614533901,-136.02583312988281,0.04645771533251,-0.00375524256378,-9.66046524047852,0.04891037940979,0.21430148184299,0.17693030834198
187,2975581333,179.72784423828125,0.23720033466816,-136.02349853515625,0.05614981800318,-0.00441330391914,-9.61319160461426,-0.02886724472046,0.20736004412174,0.21358431875706
188,2975589666,179.72669982910156,0.24208585917950,-136.02313232421875,0.05034193396568,-0.00377651071176,-9.64154624938965,0.20600248873234,0.17652049660683,0.20149438083172
189,2975597999,179.72640991210938,0.24229535460472,-136.02507019042969,0.05815976485610,-0.01444874238223,-9.64551544189453,0.04627211764455,0.10843785852194,0.15251997113228
190,2975606332,179.72505187988281,0.24716044962406,-136.02384948730469,0.04884676635265,-0.01366193033755,-9.62701892852783,0.17997841536999,0.17739136517048,0.09921672940254
191,2975614665,179.72486877441406,0.24634182453156,-136.01437377929688,0.05629287287593,0.01331859361380,-9.63131046295166,0.05918169021606,0.22902967035770,0.18125914037228
192,2975622998,179.72280883789062,0.25098663568497,-136.01382446289062,0.04486263170838,0.01356894336641,-9.64024448394775,0.09432440996170,0.20239087939262,0.17703278362751
193,2975631331,179.72344970703125,0.24997556209564,-136.00935363769531,0.04094287380576,0.03779562190175,-9.62251186370850,0.15190520882607,0.24634486436844,0.23166793584824
194,2975639664,179.72294616699219,0.25485277175903,-136.00843811035156,0.03556393459439,0.01668043062091,-9.64206123352051,0.28176936507225,0.17301134765148,0.13961039483547
195,2975647997,179.72438049316406,0.25428110361099,-136.00775146484375,0.05913970619440,0.01364047173411,-9.65480709075928,0.24931615591049,0.19255501031876,0.22485455870628
196,2975656330,179.72207641601562,0.25902625918388,-136.00601196289062,0.04336768761277,0.00967064406723,-9.62187576293945,0.06481682509184,0.18902026116848,0.04096997156739
197,2975664663,179.72264099121094,0.25825232267380,-136.00520324707031,0.05211536586285,0.00342585542239,-9.62086582183838,0.14516866207123,0.21335376799107,0.15651577711105
198,2975672996,179.72143554687500,0.26228985190392,-136.00431823730469,0.03638651221991,0.01802516356111,-9.64537239074707,0.19511644542217,0.27203601598740,0.14468201994896
199,2975681329,179.72169494628906,0.26126584410667,-136.00508117675781,0.05715121701360,0.01682348735631,-9.62943649291992,0.10756697505713,0.24173432588577,0.13625490665436
200,2975689662,179.72029113769531,0.26604107022285,-136.00399780273438,0.05351019278169,-0.00433486094698,-9.63103103637695,0.17293450236320,0.18223248422146,0.12239763140678
201,2975697995,179.72096252441406,0.26484829187393,-136.00097656250000,0.04904704540968,0.00841889623553,-9.62844181060791,0.15728421509266,0.25922885537148,0.08676823228598
202,2975706328,179.71949768066406,0.26940232515335,-136.00010681152344,0.05872483924031,0.00711707863957,-9.65008640289307,0.16376461088657,0.20823092758656,0.14660306274891
203,2975714661,179.71994018554688,0.26861009001732,-135.99932861328125,0.04235198348761,0.00027896088432,-9.64345550537109,0.12780222296715,0.20677091181278,0.11806881427765
204,2975722994,179.71778869628906,0.27277567982674,-135.99845886230469,0.05280943959951,0.01617973111570,-9.64080905914307,0.07880219072104,0.25466951727867,0.14493814110756
205,2975731327,179.71824645996094,0.27237126231194,-136.00177001953125,0.05539912357926,0.01163094397634,-9.63002967834473,0.12810958921909,0.15541437268257,0.25223618745804
206,2975739660,179.71662902832031,0.27619588375092,-136.00120544433594,0.05054213479161,0.01329026836902,-9.63941574096680,0.14468199014664,0.29332137107849,0.18172016739845
207,2975747993,179.71705627441406,0.27449205517769,-136.00495910644531,0.06316689401865,0.00839774776250,-9.63764190673828,0.12260253727436,0.30712747573853,0.18866163492203
208,2975756326,179.71533203125000,0.27976769208908,-136.00433349609375,0.04837492108345,0.01010719127953,-9.64119529724121,0.12951837480068,0.11934952437878,0.17544469237328
209,2975764659,179.71588134765625,0.27847054600716,-136.00708007812500,0.04808856174350,0.02325389161706,-9.65583038330078,0.13899564743042,0.25459268689156,0.10457012057304
210,2975772992,179.71440124511719,0.28278729319572,-136.00605773925781,0.06265175342560,0.00515004713088,-9.63844203948975,0.15876984596252,0.23279497027397,0.12360149621964
211,2975781325,179.71487426757812,0.28156059980392,-136.00276184082031,0.05733719095588,0.02484897710383,-9.64899921417236,0.12946712970734,0.24247713387012,0.16832393407822
212,2975789658,179.71272277832031,0.28685474395752,-136.00172424316406,0.04652924463153,0.01230288948864,-9.65394878387451,0.07959622144699,0.11361194401979,0.12229516357183
213,2975797991,179.71391296386719,0.28620082139969,-135.99542236328125,0.06694367527962,-0.00185957760550,-9.66048622131348,0.21824607253075,0.16732500493526,0.18077246844769
214,2975806324,179.71272277832031,0.29063096642494,-135.99533081054688,0.06143576651812,0.00017166823091,-9.64122390747070,0.19173537194729,0.21678607165813,0.23766165971756
215,2975814657,179.71263122558594,0.28987824916840,-135.99546813964844,0.07346703112125,-0.00581475393847,-9.63510990142822,0.05920730158687,0.17541907727718,0.13505105674267
216,2975822990,179.71049499511719,0.29470998048782,-135.99412536621094,0.04568505659699,0.00262478273362,-9.65008544921875,0.07887904345989,0.16840079426765,0.08607663959265
217,2975831323,179.71051025390625,0.29286551475525,-135.99386596679688,0.05645032227039,0.00246807397343,-9.63578224182129,0.06714771687984,0.29928952455521,0.10700346529484
218,2975839656,179.70811462402344,0.29745361208916,-135.99305725097656,0.05489815399051,-0.00094385322882,-9.64607334136963,0.04870546609163,0.19603854417801,0.15295539796352
219,2975847989,179.70811462402344,0.29633074998856,-135.99990844726562,0.07948954403400,0.01451311819255,-9.65898418426514,0.06089784204960,0.20928110182285,0.16263759136200
220,2975856322,179.70602416992188,0.30088835954666,-135.99842834472656,0.05954013019800,0.01731673628092,-9.64431285858154,0.08551312983036,0.19859996438026,0.06978597491980
221,2975864655,179.70619201660156,0.29952156543732,-135.99172973632812,0.05998374149203,0.02278180420399,-9.63832759857178,0.08279801905155,0.23113004863262,0.17060361802578
222,2975872988,179.70455932617188,0.30320093035698,-135.99197387695312,0.05706538259983,0.00569366291165,-9.63809776306152,0.14086548984051,0.30220955610275,0.27436688542366
223,2975881321,179.70549011230469,0.30161282420158,-135.99186706542969,0.04005605354905,0.01139467023313,-9.63861370086670,0.17421521246433,0.25410601496696,0.14122407138348
224,2975889654,179.70315551757812,0.30604037642479,-135.99081420898438,0.05295249819756,0.00728874700144,-9.64432811737061,0.05398199707270,0.21030566096306,0.12250006943941
225,2975897987,179.70425415039062,0.30486452579498,-135.98873901367188,0.05000552535057,0.01174496859312,-9.63279056549072,0.19506520032883,0.20223717391491,0.14765323698521
226,2975906320,179.70227050781250,0.30996105074883,-135.98826599121094,0.04667945206165,0.01600090973079,-9.64138126373291,0.09488793462515,0.12933909893036,0.18922516703606
227,2975914653,179.70300292968750,0.30894696712494,-135.99040222167969,0.05006274953485,-0.00302565260790,-9.63393497467041,0.14842167496681,0.17877455055714,0.19445045292377
228,2975922986,179.70033264160156,0.31311845779419,-135.98921203613281,0.06042006611824,-0.00112299632747,-9.62613105773926,0.01279431022704,0.24063293635845,0.10451888293028
229,2975931319,179.70098876953125,0.31137150526047,-135.99273681640625,0.06921090930700,-0.01267483737320,-9.62792682647705,0.13625492155552,0.26491522789001,0.11804321408272
230,2975939652,179.69886779785156,0.31616771221161,-135.99227905273438,0.04564944282174,0.00830445066094,-9.63018703460693,0.07890465110540,0.16274005174637,0.19247817993164
231,2975947985,179.69892883300781,0.31529107689857,-135.98841857910156,0.04301016777754,-0.00474920077249,-9.64828395843506,0.06351049244404,0.15395434200764,0.17329309880733
232,2975956318,179.69732666015625,0.31865748763084,-135.98785400390625,0.05959033593535,0.02821081317961,-9.64707469940186,0.14045564830303,0.33399683237076,0.17915876209736
233,2975964651,179.69798278808594,0.31713920831680,-135.98330688476562,0.03711610287428,0.01777481473982,-9.63351345062256,0.13456436991692,0.22895279526711,0.24211855232716
234,2975972984,179.69570922851562,0.32097649574280,-135.98216247558594,0.03857535868883,0.03597912564874,-9.63054561614990,0.05928414314985,0.27731251716614,0.10935998708010
235,2975981317,179.69596862792969,0.31905210018158,-135.98419189453125,0.04155796766281,0.01399796549231,-9.64938449859619,0.08133800327778,0.27572441101074,0.05034478008747
236,2975989650,179.69432067871094,0.32360970973969,-135.98399353027344,0.05245212465525,0.03574321419001,-9.63759136199951,0.13443630933762,0.18907149136066,0.22408615052700
237,2975997983,179.94657897949219,-0.30557537078857,-136.01602172851562,0.04205871745944,0.02383327297866,-9.63307666778564,0.06097468733788,0.19788274168968,0.15065012872219
238,2976006316,179.94471740722656,-0.30104687809944,-136.01502990722656,0.05607828870416,0.00303995818831,-9.63879203796387,0.10877084732056,0.19058270752430,0.12990257143974
239,2976014649,179.94451904296875,-0.30135008692741,-136.02040100097656,0.03770263493061,0.00413434300572,-9.65062332153320,0.09939603507519,0.24870143830776,0.16630041599274
240,2976022982,179.94581604003906,-0.30129787325859,-136.02011108398438,0.03888285532594,0.01040023379028,-9.63199710845947,0.27539142966270,0.20141752064228,0.12431868910789
241,2976031315,179.94515991210938,-0.30149143934250,-136.02433776855469,0.04868225008249,0.01988490298390,-9.64482212066650,0.04550368711352,0.23535639047623,0.05464796721935
242,2976039648,179.94418334960938,-0.30142912268639,-136.02363586425781,0.05624280497432,0.00899112317711,-9.65508651733398,0.00259984470904,0.19990627467632,0.07452461123466
243,2976047981,179.94435119628906,-0.30191951990128,-136.02493286132812,0.05542022734880,-0.00525733968243,-9.61377143859863,0.14532236754894,0.27195912599564,0.17488116025925
244,2976056314,179.94419860839844,-0.30196383595467,-136.02496337890625,0.05717248842120,0.00600085873157,-9.63793945312500,0.09967779368162,0.21250848472118,0.16548074781895
245,2976064647,179.94459533691406,-0.30121564865112,-136.02758789062500,0.05087839812040,0.00717446347699,-9.63450050354004,0.17057797312737,0.12206463515759,0.12467728555202
246,2976072980,179.94497680664062,-0.30116185545921,-136.02705383300781,0.06421822309494,0.01547159906477,-9.64954280853271,0.16606989502907,0.20054663717747,0.09524653106928
247,2976081313,179.94523620605469,-0.30135196447372,-136.02920532226562,0.03203772380948,0.02283209189773,-9.63667488098145,0.15275049209595,0.23507462441921,0.17185869812965
248,2976089646,179.94610595703125,-0.30117225646973,-136.02975463867188,0.04879669472575,0.00429170578718,-9.64693927764893,0.22313840687275,0.18566477298737,0.22413735091686
249,2976097979,179.94636535644531,-0.30054494738579,-136.03137207031250,0.05322430282831,0.00287544284947,-9.62585258483887,0.15469716489315,0.13561457395554,0.18868726491928
250,2976106312,179.94627380371094,-0.30089786648750,-136.03184509277344,0.04158663004637,0.01715251803398,-9.65696048736572,0.10848908871412,0.25090420246124,0.21606887876987
251,2976114645,179.94665527343750,-0.30097115039825,-136.03395080566406,0.04724452644587,-0.00372663117014,-9.63888549804688,0.16765798628330,0.22039771080017,0.11235685646534
252,2976122978,179.94612121582031,-0.29998201131821,-136.03421020507812,0.04552069306374,0.00027180803590,-9.63268375396729,0.05521148070693,0.08843313902617,0.18981428444386
253,2976131311,179.94546508789062,-0.29987823963165,-136.03694152832031,0.04930454492569,-0.00692395213991,-9.62392807006836,0.04335208982229,0.19877927005291,0.21322572231293
254,2976139644,179.94497680664062,-0.30012437701225,-136.03707885742188,0.05235165730119,0.00397698068991,-9.63646697998047,0.06100029870868,0.23722623288631,0.17588013410568
255,2976147977,179.94476318359375,-0.29984715580940,-136.03695678710938,0.06001962721348,0.01776074059308,-9.64625930786133,0.09483671188354,0.18046508729458,0.11952881515026
256,2976156310,179.94432067871094,-0.29944100975990,-136.03692626953125,0.04675098136067,0.02023539319634,-9.65952110290527,0.06748070567846,0.15851369500160,0.15531192719936
257,2976164643,179.94418334960938,-0.29967999458313,-136.04045104980469,0.05030594393611,-0.00431316439062,-9.63790512084961,0.10298202186823,0.23886550962925,0.27216404676437
258,2976172976,179.94322204589844,-0.30013784766197,-136.04032897949219,0.06652143597603,0.01719543524086,-9.65183925628662,0.00280475849286,0.26368573307991,0.14273531734943
259,2976181309,179.94366455078125,-0.30004206299782,-136.04338073730469,0.05020580440760,0.01101537793875,-9.65904903411865,0.17508611083031,0.19959892332554,0.18528056144714
260,2976189642,179.94479370117188,-0.30015596747398,-136.04345703125000,0.05562050640583,0.03323926031590,-9.63535118103027,0.25451585650444,0.22131977975368,0.16624918580055
261,2976197975,179.94522094726562,-0.29937413334846,-136.04527282714844,0.04526318982244,0.02155866846442,-9.64465045928955,0.16998888552189,0.11717230826616,0.21302078664303
262,2976206308,179.94561767578125,-0.29837730526924,-136.04443359375000,0.06308807432652,0.01343303918839,-9.65459251403809,0.16737620532513,0.08789523690939,0.05895115062594
263,2976214641,179.94583129882812,-0.29809996485710,-136.04582214355469,0.05449776723981,-0.00057908747112,-9.64261245727539,0.14926694333553,0.17646926641464,0.15510699152946
264,2976222974,179.94679260253906,-0.29772549867630,-136.04542541503906,0.05383972451091,0.00034352659713,-9.64475917816162,0.23438304662704,0.16271442174911,0.10989787429571
265,2976231307,179.94667053222656,-0.29748404026031,-136.04661560058594,0.04602842777967,0.00361199351028,-9.62548065185547,0.10830978304148,0.17997841536999,0.09990832209587
266,2976239640,179.94676208496094,-0.29692703485489,-136.04687500000000,0.03870403394103,0.01467048097402,-9.64917755126953,0.13028681278229,0.14148022234440,0.18935322761536
267,2976247973,179.94659423828125,-0.29679363965988,-136.04673767089844,0.05338868871331,0.00278222141787,-9.63641834259033,0.10257221013308,0.19311852753162,0.11363756656647
268,2976256306,179.94778442382812,-0.29676899313927,-136.04673767089844,0.07067724317312,0.01580778323114,-9.66151618957520,0.26263555884361,0.20362034440041,0.16046036779881
269,2976264639,179.94721984863281,-0.29697778820992,-136.04901123046875,0.05150762200356,0.00329030770808,-9.63953590393066,0.05326480790973,0.23535642027855,0.23235954344273
270,2976272972,179.94667053222656,-0.29783484339714,-136.04858398437500,0.03149396926165,0.01409110054374,-9.62223339080811,0.05510903149843,0.31043171882629,0.10789997130632
271,2976281305,179.94712829589844,-0.29777413606644,-136.04869079589844,0.04552053287625,0.00464201066643,-9.65306854248047,0.17467628419399,0.20131507515907,0.08617909997702
272,2976289638,179.94824218750000,-0.29783010482788,-136.04907226562500,0.04255254194140,0.01432022731751,-9.63870716094971,0.25428530573845,0.21427586674690,0.20354352891445
273,2976297971,179.94798278808594,-0.29809030890465,-136.05043029785156,0.04180836677551,0.02562863565981,-9.63837051391602,0.09122508764267,0.24012063443661,0.13108083605766
274,2976306304,179.94821166992188,-0.29894477128983,-136.05006408691406,0.05692232400179,-0.01266768481582,-9.63341331481934,0.14570657908916,0.31132820248604,0.11496949195862
275,2976314637,179.94824218750000,-0.29839408397675,-136.05134582519531,0.03050687536597,0.00831160321832,-9.63450717926025,0.12772537767887,0.14491252601147,0.08021097630262
276,2976322970,179.94689941406250,-0.29862040281296,-136.05148315429688,0.04951913282275,0.00747472094372,-9.63329887390137,-0.04390280321240,0.23397324979305,0.17790368199348
277,2976331303,179.94667053222656,-0.29789990186691,-136.05317687988281,0.04838898405433,0.01022856496274,-9.63127422332764,0.09542584419250,0.12421623617411,0.25080180168152
278,2976339636,179.94778442382812,-0.29748463630676,-136.05387878417969,0.06670025736094,0.00820431113243,-9.62889957427979,0.25290215015411,0.15771967172623,0.24232348799706
279,2976347969,179.94874572753906,-0.29791042208672,-136.05433654785156,0.07009786367416,0.00010729264613,-9.62960815429688,0.23512582480907,0.26212325692177,0.15456908941269
280,2976356302,179.94873046875000,-0.29811412096024,-136.05455017089844,0.05303832888603,-0.00506421271712,-9.63581657409668,0.11717230826616,0.23215460777283,0.18548548221588
281,2976364635,179.94911193847656,-0.29851016402245,-136.05413818359375,0.05077087879181,-0.00442045694217,-9.64210414886475,0.16647972166538,0.25618076324463,0.11143473535776
282,2976372968,179.94966125488281,-0.29815220832825,-136.05355834960938,0.04160808771849,0.00741034513339,-9.63180351257324,0.18556232750416,0.16481478512287,0.08953455835581
283,2976381301,179.95028686523438,-0.29818046092987,-136.05503845214844,0.03281009197235,0.00949897523969,-9.63149642944336,0.19557747244835,0.21191936731339,0.14124967157841
284,2976389634,179.95111083984375,-0.29874697327614,-136.05595397949219,0.04710862413049,0.00304711121134,-9.65302658081055,0.21842537820339,0.27631354331970,0.26765596866608
285,2976397967,179.95005798339844,-0.29863709211349,-136.05776977539062,0.05165068060160,0.01280358899385,-9.64011573791504,-0.00645478675142,0.19652521610260,0.17011693120003
286,2976406300,179.94998168945312,-0.29875564575195,-136.05824279785156,0.06535552442074,0.01854016818106,-9.63800525665283,0.10889890044928,0.22083312273026,0.21629939973354
287,2976414633,179.94995117187500,-0.29843214154243,-136.06048583984375,0.04955472424626,0.01105804275721,-9.66321182250977,0.11607090383768,0.17208924889565,0.13645982742310
288,2976422966,179.94976806640625,-0.29788106679916,-136.05972290039062,0.04394706711173,0.01625125855207,-9.65796184539795,0.09719320386648,0.14094232022762,0.06640490144491
289,2976431299,179.94938659667969,-0.29794254899025,-136.06101989746094,0.03754527121782,0.01743863150477,-9.65453529357910,0.07370495796204,0.21704222261906,0.19086445868015
290,2976439632,179.94824218750000,-0.29791125655174,-136.06100463867188,0.04898264631629,0.00738923531026,-9.63321304321289,-0.01634188182652,0.20428633689880,0.15861614048481
291,2976447965,179.94784545898438,-0.29736024141312,-136.06198120117188,0.04504860565066,0.01069349981844,-9.64064502716064,0.06963229924440,0.14432340860367,0.21645312011242
292,2976456298,179.94746398925781,-0.29801255464554,-136.06188964843750,0.04850349202752,0.00564381713048,-9.63835620880127,0.07526742666960,0.28512483835220,0.14637254178524
293,2976464631,179.94821166992188,-0.29816561937332,-136.06253051757812,0.03731638193130,-0.01042169239372,-9.63880634307861,0.20951165258884,0.22885039448738,0.15677191317081
294,2976472964,179.94767761230469,-0.29827266931534,-136.06324768066406,0.06013387069106,0.01418379973620,-9.62572479248047,0.05605675652623,0.22019279003143,0.24411648511887
295,2976481297,179.94705200195312,-0.29872447252274,-136.06539916992188,0.06039145216346,0.01786780171096,-9.66733932495117,0.04360823333263,0.26524820923805,0.24757434427738
296,2976489630,179.94668579101562,-0.29926890134811,-136.06517028808594,0.05609259381890,0.00592970661819,-9.64826965332031,0.07682989537716,0.27372649312019,0.13059416413307
297,2976497963,179.94688415527344,-0.29866021871567,-136.06686401367188,0.05074942111969,0.00025034949067,-9.63168907165527,0.14265848696232,0.13620369136333,0.17152574658394
298,2976506296,179.94738769531250,-0.29840028285980,-136.06748962402344,0.04526318982244,0.00062945019454,-9.63992977142334,0.17928682267666,0.17593136429787,0.23292303085327
299,2976514629,179.94747924804688,-0.29855981469154,-136.06860351562500,0.05220126360655,0.01798193901777,-9.63188838958740,0.13272015750408,0.22926020622253,0.12531764805317
300,2976522962,179.94740295410156,-0.29902759194374,-136.06884765625000,0.04572097212076,0.02765289135277,-9.65660953521729,0.10864275693893,0.26396748423576,0.19007042050362
301,2976531295,179.94721984863281,-0.29923534393311,-136.07005310058594,0.05157915130258,0.00978508871049,-9.63236141204834,0.09683461487293,0.23405009508133,0.13289946317673
302,2976539628,179.94799804687500,-0.29976677894592,-136.06951904296875,0.06581342220306,0.04666528105736,-9.64827728271484,0.21353305876255,0.27180543541908,0.09532336890697
303,2976547961,179.94787597656250,-0.30008256435394,-136.07057189941406,0.05250902101398,0.00658061541617,-9.61520957946777,0.10746451467276,0.24806106090546,0.16560882329941
304,2976556294,179.94697570800781,-0.30006819963455,-136.07009887695312,0.05176512524486,0.02146568149328,-9.64267635345459,0.01051464304328,0.20566947758198,0.10328939557076
305,2976564627,179.94688415527344,-0.29965001344681,-136.06983947753906,0.05161473527551,-0.00367681821808,-9.64946365356445,0.11120419949293,0.15900036692619,0.15072695910931
306,2976572960,179.94590759277344,-0.29941707849503,-136.06968688964844,0.04532041400671,-0.00508567132056,-9.64585876464844,0.00257423054427,0.17915877699852,0.14137776196003
307,2976581293,179.94635009765625,-0.29910257458687,-136.07110595703125,0.03975550085306,0.00643755868077,-9.66543674468994,0.17418959736824,0.17029623687267,0.19839507341385
308,2976589626,179.94679260253906,-0.29966384172440,-136.07160949707031,0.05006990209222,0.00791104417294,-9.64377784729004,0.17280642688274,0.27485352754593,0.21834851801395
309,2976597959,179.94712829589844,-0.29922699928284,-136.07301330566406,0.07063432782888,-0.00384822953492,-9.65038681030273,0.16207407414913,0.15730983018875,0.16420005261898
310,2976606292,179.94703674316406,-0.29945820569992,-136.07321166992188,0.05024872347713,0.00921286176890,-9.63644599914551,0.10651679337025,0.23581743240356,0.18389739096165
311,2976614625,179.94808959960938,-0.29970508813858,-136.07395935058594,0.05768052488565,0.00875507947057,-9.64421367645264,0.24888069927692,0.23794344067574,0.10784873366356
312,2976622958,179.94862365722656,-0.30010077357292,-136.07444763183594,0.04792404919863,0.01666612364352,-9.63259029388428,0.18341071903706,0.25507929921150,0.21898888051510
313,2976631291,179.94833374023438,-0.30038768053055,-136.07513427734375,0.05811684951186,0.01012842543423,-9.63371372222900,0.08471908420324,0.24265645444393,0.06812106072903
314,2976639624,179.94927978515625,-0.30107340216637,-136.07518005371094,0.04258087277412,0.03555678203702,-9.65266895294189,0.23205216228962,0.28891575336456,0.16522461175919
315,2976647957,179.94979858398438,-0.30134949088097,-136.07612609863281,0.04579275473952,0.02628701925278,-9.63206100463867,0.18440967798233,0.24158065021038,0.25031512975693
316,2976656290,179.94949340820312,-0.30108243227005,-136.07595825195312,0.04577092453837,0.00907669775188,-9.63301944732666,0.08128676563501,0.17536784708500,0.13835527002811
317,2976664623,179.94979858398438,-0.30153152346611,-136.07762145996094,0.03944057598710,0.01067172363400,-9.64341354370117,0.16197161376476,0.26273804903030,0.22623771429062
318,2976672956,179.94990539550781,-0.30117478966713,-136.07769775390625,0.04964812099934,-0.00120853632689,-9.64736080169678,0.13059416413307,0.16414880752563,0.16717129945755
319,2976681289,179.94952392578125,-0.30134743452072,-136.07904052734375,0.05971193313599,0.00808271300048,-9.62621021270752,0.07718849182129,0.23002862930298,0.19557747244835
320,2976689622,179.95027160644531,-0.30167368054390,-136.07951354980469,0.06775862723589,-0.00723180873320,-9.64359760284424,0.20984463393688,0.24596071243286,0.21635064482689
321,2976697955,179.95042419433594,-0.30184078216553,-136.07998657226562,0.06164342910051,-0.02750232256949,-9.64829254150391,0.13848336040974,0.22961880266666,0.14639817178249
322,2976706288,179.94927978515625,-0.30129814147949,-136.07974243164062,0.05519853159785,0.00328991538845,-9.64791965484619,-0.01565029658377,0.14178758859634,0.12854501605034
323,2976714621,179.94781494140625,-0.30104279518127,-136.07911682128906,0.04767369851470,0.00813278276473,-9.64998626708984,-0.05755519121885,0.17639243602753,0.15464594960213
324,2976722954,179.94819641113281,-0.30071613192558,-136.07908630371094,0.04248045757413,0.01719515584409,-9.64925575256348,0.16576252877712,0.16868254542351,0.15400558710098
325,2976731287,179.94801330566406,-0.30110239982605,-136.07928466796875,0.05661484971642,0.01793958246708,-9.64047336578369,0.09862760454416,0.25474640727043,0.18366686999798
326,2976739620,179.94786071777344,-0.30166667699814,-136.07957458496094,0.04708716645837,0.02705205231905,-9.65332698822021,0.10216238349676,0.27475112676620,0.19360519945621
327,2976747953,179.94749450683594,-0.30088710784912,-136.08090209960938,0.04302451387048,0.01806832104921,-9.62810611724854,0.07654813677073,0.11402176320553,0.19637152552605
328,2976756286,179.94758605957031,-0.30066555738449,-136.08062744140625,0.05260217934847,0.01718136481941,-9.66353416442871,0.12918537855148,0.18018332123756,0.12252568453550
329,2976764619,179.94757080078125,-0.30007213354111,-136.08062744140625,0.04979843646288,0.01881236582994,-9.63485908508301,0.11940076947212,0.13748440146446,0.13187487423420
330,2976772952,179.94848632812500,-0.30044296383858,-136.08084106445312,0.05049907043576,0.00929154269397,-9.65864849090576,0.22954198718071,0.25195446610451,0.18402549624443
331,2976781285,179.94839477539062,-0.30048021674156,-136.08299255371094,0.03574275597930,-0.01080794539303,-9.65655231475830,0.11097367852926,0.21171447634697,0.19537258148193
332,2976789618,179.94787597656250,-0.30003815889359,-136.08238220214844,0.04938322678208,-0.00304711121134,-9.64078044891357,0.05746553838253,0.15513262152672,0.08525697886944
333,2976797951,179.94773864746094,-0.29987120628357,-136.08438110351562,0.06932549923658,0.00084428605624,-9.64840507507324,0.10651679337025,0.18830303847790,0.12442114204168
334,2976806284,179.94712829589844,-0.29960808157921,-136.08364868164062,0.05952595919371,0.02009948901832,-9.64496517181396,0.04637457057834,0.17531663179398,0.07316706329584
335,2976814617,179.94709777832031,-0.30007320642471,-136.08331298828125,0.03852521255612,-0.00852618925273,-9.63560867309570,0.11699303239584,0.26499208807945,0.19137676060200
336,2976822950,179.94685363769531,-0.29984834790230,-136.08335876464844,0.02593620866537,0.00571512151510,-9.64761161804199,0.08932964503765,0.18031141161919,0.16320110857487
337,2976831283,179.94604492187500,-0.30044618248940,-136.08413696289062,0.04568520933390,-0.00218161707744,-9.63638114929199,0.02273263223469,0.27851635217667,0.12014356255531
338,2976839616,179.94497680664062,-0.30018648505211,-136.08479309082031,0.04787399619818,0.01703761518002,-9.62079524993896,-0.01045060716569,0.17721207439899,0.23886553943157
339,2976847949,179.94523620605469,-0.30073389410973,-136.08505249023438,0.05315992981195,0.01895503327250,-9.65300464630127,0.15105994045734,0.27385458350182,0.13589631021023
340,2976856282,179.94561767578125,-0.30027040839195,-136.08433532714844,0.03871821239591,0.03426915407181,-9.62785434722900,0.16855446994305,0.15241752564907,0.07232180237770
341,2976864615,179.94575500488281,-0.30052658915520,-136.08518981933594,0.04823162034154,0.01392658520490,-9.66090106964111,0.13607563078403,0.23950590193272,0.16371339559555
342,2976872948,179.94548034667969,-0.30109614133835,-136.08494567871094,0.04904704540968,0.02514224313200,-9.64578056335449,0.08602541685104,0.27600622177124,0.13020996749401
343,2976881281,179.94636535644531,-0.30047693848610,-136.08616638183594,0.05351041629910,0.00577234430239,-9.66377735137939,0.22621209919453,0.13543526828289,0.20464493334293
344,2976889614,179.94715881347656,-0.30061987042427,-136.08595275878906,0.05103553459048,0.00010729264613,-9.64525127410889,0.21527485549450,0.22523877024651,0.13243839144707
345,2976897947,179.94667053222656,-0.30164468288422,-136.08703613281250,0.04558506980538,-0.01651591435075,-9.63430023193359,0.06486804783344,0.33156347274780,0.15454348921776
346,2976906280,179.94628906250000,-0.30192109942436,-136.08737182617188,0.04421172291040,0.00773222325370,-9.65814781188965,0.07472952455282,0.24042800068855,0.19883050024509
347,2976914613,179.94580078125000,-0.30249226093292,-136.08953857421875,0.04754494875669,-0.01444158982486,-9.63981533050537,0.05984766036272,0.27785038948059,0.21401973068714
348,2976922946,179.94564819335938,-0.30265095829964,-136.08959960937500,0.04364683106542,0.00709602097049,-9.62515258789062,0.10134272277355,0.22703175246716,0.16484040021896
349,2976931279,179.94587707519531,-0.30264818668365,-136.09104919433594,0.04708716645837,0.00755340233445,-9.63701820373535,0.14837045967579,0.20887127518654,0.14142899215221
350,2976939612,179.94599914550781,-0.30226525664330,-136.09065246582031,0.04816009104252,0.01714536547661,-9.64620208740234,0.13174682855606,0.16212530434132,0.11097367852926
351,2976947945,179.94541931152344,-0.30183979868889,-136.09307861328125,0.03971258550882,0.02549273148179,-9.65060901641846,0.05119005218148,0.15930773317814,0.18074685335159
352,2976956278,179.94667053222656,-0.30182883143425,-136.09330749511719,0.05228728055954,0.03167278692126,-9.63996505737305,0.27037107944489,0.20561826229095,0.18684303760529
353,2976964611,179.94639587402344,-0.30235180258751,-136.09501647949219,0.04013451933861,0.00813968852162,-9.63141822814941,0.08443731069565,0.27390581369400,0.16893868148327
354,2976972944,179.94635009765625,-0.30273965001106,-136.09497070312500,0.04317456111312,0.01336151082069,-9.64994335174561,0.11507194489241,0.25333756208420,0.15421047806740
355,2976981277,179.94651794433594,-0.30190950632095,-136.09648132324219,0.05901810899377,0.01467048097402,-9.65399169921875,0.14068618416786,0.11174209415913,0.20807723701000
356,2976989610,179.94685363769531,-0.30248701572418,-136.09645080566406,0.03002062253654,0.00630188640207,-9.62759876251221,0.16099828481674,0.27708196640015,0.15641333162785
357,2976997943,179.94735717773438,-0.30235138535500,-136.09873962402344,0.05692232400179,-0.00148063851520,-9.65490055084229,0.18159212172031,0.19363081455231,0.28563714027405
358,2977006276,179.94749450683594,-0.30302822589874,-136.09980773925781,0.05102144181728,0.00859816558659,-9.65317726135254,0.13443630933762,0.28830102086067,0.28904381394386
359,2977014609,179.94863891601562,-0.30282464623451,-136.09977722167969,0.03883278369904,0.02566440030932,-9.64206790924072,0.25976675748825,0.18799567222595,0.10211114585400
360,2977022942,179.94789123535156,-0.30245077610016,-136.10005187988281,0.05606404691935,0.01572943292558,-9.63693904876709,0.02875198237598,0.16248390078545,0.18991674482822
361,2977031275,179.94732666015625,-0.30221354961395,-136.10108947753906,0.04778814315796,0.00535747921094,-9.63264083862305,0.05288058519363,0.18315458297729,0.11151157319546
362,2977039608,179.94750976562500,-0.30215910077095,-136.10102844238281,0.04573551565409,0.01151639875025,-9.61596870422363,0.14273531734943,0.20016242563725,0.15054765343666
363,2977047941,179.94708251953125,-0.30208140611649,-136.10107421875000,0.05194383487105,0.00131582061294,-9.65165138244629,0.06922246515751,0.20341542363167,0.06942737102509
364,2977056274,179.94712829589844,-0.30240437388420,-136.10075378417969,0.06108545511961,0.00698149483651,-9.66626739501953,0.12623973190784,0.24532033503056,0.12185969948769
365,2977064607,179.94757080078125,-0.30244076251984,-136.10215759277344,0.04989108070731,0.00943459942937,-9.64147472381592,0.17429204285145,0.21647870540619,0.12165482342243
366,2977072940,179.94744873046875,-0.30286633968353,-136.10200500488281,0.05793087556958,0.01845433562994,-9.66158771514893,0.10364799201488,0.25787129998207,0.13725386559963
367,2977081273,179.94784545898438,-0.30332189798355,-136.10409545898438,0.06179340928793,0.01339727453887,-9.63913536071777,0.17083413898945,0.26568365097046,0.22982372343540
368,2977089606,179.94744873046875,-0.30375072360039,-136.10444641113281,0.05102838203311,0.00326169631444,-9.62731170654297,0.07111791521311,0.25838357210159,0.20195542275906
369,2977097939,179.94729614257812,-0.30369445681572,-136.10592651367188,0.04783127084374,0.01600847579539,-9.64710521697998,0.10175254940987,0.20451685786247,0.18866164982319
370,2977106272,179.94702148437500,-0.30328029394150,-136.10552978515625,0.04643625766039,0.02630815654993,-9.64561557769775,0.08633277565241,0.15833438932896,0.10997472703457
371,2977114605,179.94732666015625,-0.30386680364609,-136.10728454589844,0.03801735863090,-0.00642325310037,-9.62493705749512,0.15987125039101,0.27982267737389,0.17403592169285
372,2977122938,179.94781494140625,-0.30300521850586,-136.10708618164062,0.05332444608212,0.00803979579359,-9.66379165649414,0.17672543227673,0.10418590903282,0.13394963741302
373,2977131271,179.94825744628906,-0.30284801125526,-136.10699462890625,0.05127873271704,0.00553630059585,-9.61897182464600,0.17703276872635,0.19227324426174,0.10544099658728
374,2977139604,179.94825744628906,-0.30259615182877,-136.10734558105469,0.04907591640949,-0.00149456690997,-9.64173221588135,0.11847863346338,0.17731453478336,0.19849748909473
375,2977147937,179.94927978515625,-0.30234703421593,-136.11013793945312,0.04953314736485,0.00635865936056,-9.61893653869629,0.24211855232716,0.18026016652584,0.22618649899960
376,2977156270,179.94940185546875,-0.30308631062508,-136.11039733886719,0.06523407250643,0.01043629739434,-9.63696956634521,0.13489736616611,0.29670247435570,0.18894338607788
377,2977164603,179.94918823242188,-0.30397480726242,-136.11061096191406,0.03934779018164,-0.00479955784976,-9.67603683471680,0.09634795039892,0.31842336058617,0.07542110979557
378,2977172936,179.94923400878906,-0.30398890376091,-136.11074829101562,0.05013451725245,0.01633033156395,-9.65359210968018,0.12331974506378,0.20815409719944,0.17547033727169
379,2977181269,179.94920349121094,-0.30423656105995,-136.11131286621094,0.04454075172544,0.00539324339479,-9.65680980682373,0.11860671639442,0.24058170616627,0.11919583380222
380,2977189602,179.95005798339844,-0.30382177233696,-136.11131286621094,0.04476926475763,0.01282478123903,-9.64035034179688,0.22318965196609,0.15707930922508,0.15789894759655
381,2977197935,179.94914245605469,-0.30331352353096,-136.11306762695312,0.05843157321215,-0.01370484754443,-9.66891956329346,0.01010481547564,0.14970239996910,0.18366688489914
382,2977206268,179.94989013671875,-0.30447420477867,-136.11236572265625,0.05767337232828,0.01114412955940,-9.64616680145264,0.20733442902565,0.34780290722847,0.07478075474501
383,2977214601,179.95014953613281,-0.30474439263344,-136.11415100097656,0.05316694825888,0.00972765218467,-9.64160346984863,0.15221257507801,0.24199047684669,0.16532707214355
384,2977222934,179.94883728027344,-0.30472511053085,-136.11441040039062,0.07901745289564,0.01271060202271,-9.62395668029785,-0.03813959658146,0.20574633777142,0.18894338607788
385,2977231267,179.94909667968750,-0.30510616302490,-136.11517333984375,0.05268771946430,0.01306088548154,-9.64708900451660,0.15170030295849,0.25653937458992,0.14998415112495
386,2977239600,179.94964599609375,-0.30539217591286,-136.11485290527344,0.04245188459754,0.01266737841070,-9.66459083557129,0.18453775346279,0.24147818982601,0.11850424855947
387,2977247933,179.94906616210938,-0.30537316203117,-136.11570739746094,0.03732353448868,0.00730305258185,-9.64170360565186,0.05159987136722,0.20677089691162,0.18722721934319
388,2977256266,179.94854736328125,-0.30542176961899,-136.11555480957031,0.06152875348926,-0.00287544284947,-9.64746093750000,0.05746553838253,0.21384045481682,0.13850899040699
389,2977264599,179.94906616210938,-0.30502241849899,-136.11509704589844,0.04429727047682,-0.00015761573741,-9.63726043701172,0.18177142739296,0.16243268549442,0.14583465456963
390,2977272932,179.94859313964844,-0.30484369397163,-136.11445617675781,0.04392572492361,0.00409890525043,-9.64709758758545,0.06294697523117,0.18620267510414,0.08172221481800
391,2977281265,179.94898986816406,-0.30535623431206,-136.11550903320312,0.04095717892051,0.00895535945892,-9.64939212799072,0.16752991080284,0.27144688367844,0.16012738645077
392,2977289598,179.94914245605469,-0.30469894409180,-136.11566162109375,0.05851740762591,0.01884058862925,-9.66046524047852,0.13881635665894,0.12867312133312,0.17785245180130
393,2977297931,179.94914245605469,-0.30642941594124,-136.11593627929688,0.05383944883943,0.00695971632376,-9.65836906433105,0.12004110962152,0.41788342595100,0.15720735490322
394,2977306264,179.94891357421875,-0.30701053142548,-136.11659240722656,0.06933251023293,0.00147348560859,-9.64703941345215,0.09132755547762,0.27664655447006,0.23650901019573
395,2977314597,179.94836425781250,-0.30660960078239,-136.11814880371094,0.04308145865798,-0.00166695564985,-9.64236927032471,0.05249636992812,0.16261197626591,0.19644838571548
396,2977322930,179.94908142089844,-0.30706951022148,-136.11738586425781,0.05114997923374,-0.00341905886307,-9.65112400054932,0.20746248960495,0.26230254769325,0.06689157336950
397,2977331263,179.95046997070312,-0.30667701363564,-136.11495971679688,0.04610007256269,0.00527879828587,-9.65041542053223,0.28602138161659,0.16181795299053,0.12944155931473
398,2977339596,179.95062255859375,-0.30716392397881,-136.11459350585938,0.05788795650005,0.04248073324561,-9.65567302703857,0.13635738193989,0.26647767424583,0.11584036797285
399,2977347929,179.95059204101562,-0.30693873763084,-136.11351013183594,0.05624978244305,0.00038599173422,-9.64102935791016,0.11681371182203,0.18302650749683,0.06717333197594
400,2977356262,179.95079040527344,-0.30695670843124,-136.11315917968750,0.02570034936070,0.00830471515656,-9.62419414520264,0.14245358109474,0.20979338884354,0.11794074624777
401,2977364595,179.95158386230469,-0.30685743689537,-136.11337280273438,0.03841076791286,0.01472055073828,-9.62736225128174,0.21545413136482,0.19726800918579,0.07675305753946
402,2977372928,179.95236206054688,-0.30663684010506,-136.11282348632812,0.05176512524486,0.02765289135277,-9.62889957427979,0.21307200193405,0.18090052902699,0.09309493005276
403,2977381261,179.95256042480469,-0.30650213360786,-136.11418151855469,0.04559970647097,0.01314737182111,-9.64458656311035,0.14393918216228,0.19475783407688,0.21337938308716
404,2977389594,179.95210266113281,-0.30693161487579,-136.11407470703125,0.04682251065969,0.00922001432627,-9.64225387573242,0.06509857624769,0.25869095325470,0.14483568072319
405,2977397927,179.95207214355469,-0.30641198158264,-136.11338806152344,0.06393229961395,0.01563634723425,-9.64879131317139,0.11750529706478,0.14796063303947,0.14701290428638
406,2977406260,179.95140075683594,-0.30694627761841,-136.11253356933594,0.05173654109240,-0.00243180734105,-9.62045383453369,0.03884398564696,0.27231773734093,0.05475042387843
407,2977414593,179.95095825195312,-0.30759033560753,-136.11387634277344,0.05099977180362,0.00690964609385,-9.65392780303955,0.06640489399433,0.28750696778297,0.14317074418068
408,2977422926,179.94985961914062,-0.30724352598190,-136.11399841308594,0.05075657367706,0.02467015571892,-9.65831184387207,-0.01134710665792,0.16522461175919,0.17459942400455
409,2977431259,179.95002746582031,-0.30711826682091,-136.11337280273438,0.04806710407138,0.01880482397974,-9.62912845611572,0.14035318791866,0.19621783494949,0.13289944827557
410,2977439592,179.94958496093750,-0.30805298686028,-136.11314392089844,0.04833891242743,0.00487823877484,-9.62075233459473,0.06773684173822,0.31855142116547,0.13207980990410
411,2977447925,179.94851684570312,-0.30873319506645,-136.11384582519531,0.04194427281618,0.01978488452733,-9.64586734771729,-0.00722321355715,0.29311650991440,0.03822924196720
412,2977456258,179.94866943359375,-0.30923345685005,-136.11408996582031,0.05146484822035,0.01188829727471,-9.63195419311523,0.13753563165665,0.26737418770790,0.19014725089073
413,2977464591,179.94767761230469,-0.30889931321144,-136.11686706542969,0.04373248293996,-0.00285398424603,-9.65178871154785,0.00070439145202,0.17111589014530,0.27564758062363
414,2977472924,179.94602966308594,-0.30892556905746,-136.11679077148438,0.05169359594584,0.00845465995371,-9.64126014709473,-0.07781604677439,0.20953723788261,0.14967678487301
415,2977481257,179.94610595703125,-0.30935606360435,-136.11791992187500,0.04341775551438,0.01453457679600,-9.64550876617432,0.12898047268391,0.26317343115807,0.13968722522259
416,2977489590,179.94621276855469,-0.30980706214905,-136.11752319335938,0.04795981198549,0.00569366291165,-9.64085960388184,0.13423138856888,0.26117551326752,0.10810486227274
417,2977497923,179.94641113281250,-0.30986034870148,-136.11763000488281,0.05185811221600,0.02597912587225,-9.66578006744385,0.14463077485561,0.21734960377216,0.11632706224918
418,2977506256,179.94697570800781,-0.31034788489342,-136.11709594726562,0.05435445532203,0.01340442802757,-9.65760421752930,0.18717603385448,0.26660576462746,0.09511846303940
419,2977514589,179.94668579101562,-0.31014224886894,-136.11816406250000,0.06824516505003,0.00499243987724,-9.63009452819824,0.08774156868458,0.18679182231426,0.12242324650288
420,2977522922,179.94769287109375,-0.31042262911797,-136.11857604980469,0.03766687214375,0.01346880290657,-9.64407825469971,0.23904483020306,0.24037677049637,0.21079233288765
421,2977531255,179.94810485839844,-0.30999326705933,-136.11959838867188,0.05817366763949,-0.01510001718998,-9.62821960449219,0.17165379226208,0.15928210318089,0.21547974646091
422,2977539588,179.94831848144531,-0.31043311953545,-136.11967468261719,0.04951926320791,-0.00443452689797,-9.63598823547363,0.14324760437012,0.25961309671402,0.16947659850121
423,2977547921,179.94781494140625,-0.31116992235184,-136.12001037597656,0.04022758826613,0.00969925522804,-9.61211872100830,0.06097468733788,0.30013477802277,0.16058842837811
424,2977556254,179.94790649414062,-0.31096857786179,-136.12030029296875,0.05489091575146,0.02022108621895,-9.65277576446533,0.13026118278503,0.18269352614880,0.19473221898079
425,2977564587,179.94767761230469,-0.31186041235924,-136.12135314941406,0.05725842341781,0.00192385446280,-9.63358402252197,0.09432441741228,0.31737318634987,0.15321153402328
426,2977572920,179.94725036621094,-0.31181824207306,-136.12130737304688,0.05750170350075,0.01786780171096,-9.64529418945312,0.06730140000582,0.20267263054848,0.15503016114235
427,2977581253,179.94757080078125,-0.31149834394455,-136.12092590332031,0.04923301935196,-0.00625873776153,-9.63261890411377,0.15938456356525,0.17208923399448,0.10974418371916
428,2977589586,179.94711303710938,-0.31211185455322,-136.12091064453125,0.04398993030190,0.01097937766463,-9.66008663177490,0.06361295282841,0.28184622526169,0.15564490854740
429,2977597919,179.94758605957031,-0.31194165349007,-136.12117004394531,0.04290990531445,0.00525733968243,-9.64689636230469,0.17682787775993,0.19024972617626,0.15759158134460
430,2977606252,179.94801330566406,-0.31119459867477,-136.12115478515625,0.04758071154356,0.00524303410202,-9.66409206390381,0.17208923399448,0.11683934181929,0.15310908854008
431,2977614585,179.94807434082031,-0.31162199378014,-136.12106323242188,0.06461862474680,-0.00199595093727,-9.65909767150879,0.12846818566322,0.26255872845650,0.10961611568928
432,2977622918,179.94903564453125,-0.31163614988327,-136.12104797363281,0.06144292280078,-0.01136586721987,-9.65934944152832,0.23440864682198,0.20930668711662,0.15887227654457
433,2977631251,179.94879150390625,-0.31141585111618,-136.12174987792969,0.05795233324170,-0.00030041940045,-9.62389278411865,0.09099456667900,0.18458896875381,0.16250950098038
434,2977639584,179.94847106933594,-0.31154870986938,-136.12200927734375,0.07023359090090,-0.00783281959593,-9.64197349548340,0.07908395677805,0.22318965196609,0.19065955281258
435,2977647917,179.94856262207031,-0.31116864085197,-136.12210083007812,0.05098546296358,0.01577917113900,-9.64801216125488,0.13172119855881,0.16499409079552,0.18458898365498
436,2977656250,179.94926452636719,-0.31152290105820,-136.12260437011719,0.04633636027575,-0.00439870543778,-9.63473033905029,0.20164805650711,0.24970035254955,0.21937310695648
437,2977664583,179.95002746582031,-0.31306600570679,-136.12289428710938,0.05024156719446,0.00989238172770,-9.63166046142578,0.21258533000946,0.39444640278816,0.17147448658943
438,2977672916,179.94947814941406,-0.31253477931023,-136.12310791015625,0.06011964380741,0.01060766633600,-9.63958644866943,0.05216338485479,0.14470763504505,0.18302650749683
439,2977681249,179.94947814941406,-0.31263476610184,-136.12319946289062,0.04118606820703,0.02416230365634,-9.64176082611084,0.11850424855947,0.22170397639275,0.13394963741302
440,2977689582,179.94880676269531,-0.31348448991776,-136.12292480468750,0.05010566487908,0.03466267511249,-9.65987873077393,0.03812678903341,0.30912539362907,0.12652149796486
441,2977697915,179.94888305664062,-0.31302782893181,-136.12362670898438,0.05293818935752,0.02282472141087,-9.66234683990479,0.12795591354370,0.15559366345406,0.19278551638126
442,2977706248,179.94895935058594,-0.31297731399536,-136.12300109863281,0.05000552535057,0.02989888377488,-9.63088130950928,0.13118331134319,0.20157121121883,0.08461661636829
443,2977714581,179.94822692871094,-0.31206089258194,-136.12464904785156,0.06283057481050,0.01744578406215,-9.62530136108398,0.03034006059170,0.09985709190369,0.24785615503788
444,2977722914,179.94836425781250,-0.31204774975777,-136.12486267089844,0.05566342547536,0.03135806322098,-9.64609527587891,0.13748440146446,0.20564389228821,0.18479390442371
445,2977731247,179.94837951660156,-0.31133759021759,-136.12535095214844,0.07079909741879,0.00430626235902,-9.64596652984619,0.12232077866793,0.12424183636904,0.18850795924664
446,2977739580,179.94876098632812,-0.31074005365372,-136.12538146972656,0.05581363290548,0.01979906857014,-9.65802574157715,0.16509656608105,0.13592192530632,0.16209967434406
447,2977747913,179.94883728027344,-0.31066569685936,-136.12718200683594,0.04790258780122,0.01283935271204,-9.65825462341309,0.12974889576435,0.20085401833057,0.14980483055115
448,2977756246,179.94868469238281,-0.31085371971130,-136.12747192382812,0.05441146343946,0.00756008177996,-9.64013576507568,0.09975463151932,0.22941389679909,0.19237568974495
449,2977764579,179.94898986816406,-0.31150373816490,-136.12707519531250,0.04702994227409,0.00688103493303,-9.64504337310791,0.15979440510273,0.28822416067123,0.04783458635211
450,2977772912,179.94931030273438,-0.31174069643021,-136.12709045410156,0.04524173215032,0.00825438089669,-9.65884876251221,0.15702807903290,0.23461361229420,0.16130565106869
451,2977781245,179.94837951660156,-0.31182149052620,-136.12762451171875,0.03313912078738,-0.00150209700223,-9.64170360565186,0.01166728511453,0.21937312185764,0.10441643744707
452,2977789578,179.94886779785156,-0.31146410107613,-136.12730407714844,0.06398933380842,0.00557921733707,-9.62556648254395,0.17741702497005,0.16468675434589,0.12224394083023
453,2977797911,179.94812011718750,-0.31256678700447,-136.12734985351562,0.04756638035178,0.00752459513023,-9.64404773712158,0.03133901581168,0.34250071644783,0.10631187260151
454,2977806244,179.94836425781250,-0.31349107623100,-136.12828063964844,0.05446889996529,0.02464154362679,-9.64234733581543,0.14819115400314,0.31757807731628,0.27031981945038
455,2977814577,179.94793701171875,-0.31342768669128,-136.12922668457031,0.06757290661335,0.00160223687999,-9.63922119140625,0.06947861611843,0.20259578526020,0.20200666785240
456,2977822910,179.94863891601562,-0.31391569972038,-136.12924194335938,0.05936144292355,0.01027863565832,-9.64050197601318,0.20423509180546,0.26568365097046,0.16033230721951
457,2977831243,179.94844055175781,-0.31455338001251,-136.12985229492188,0.05522710084915,0.02617940492928,-9.64884185791016,0.09673214703798,0.28594449162483,0.10959050059319
458,2977839576,179.94851684570312,-0.31471958756447,-136.12969970703125,0.07148571312428,0.02533571422100,-9.64633941650391,0.12813521921635,0.22777459025383,0.14140339195728
459,2977847909,179.94908142089844,-0.31500062346458,-136.12969970703125,0.04983385652304,0.01991351507604,-9.63859176635742,0.19040340185165,0.24283571541309,0.13361665606499
460,2977856242,179.94876098632812,-0.31462836265564,-136.12960815429688,0.05640732124448,0.01504958141595,-9.65129566192627,0.07992921769619,0.16243267059326,0.14844727516174
461,2977864575,179.94876098632812,-0.31595170497894,-136.13024902343750,0.05073511600494,0.00662353262305,-9.63771152496338,0.12196219712496,0.36719286441803,0.19521890580654
462,2977872908,179.94776916503906,-0.31638303399086,-136.12991333007812,0.06004811823368,0.00350489304401,-9.62730503082275,0.00008964982408,0.26012536883354,0.12047654390335
463,2977881241,179.94793701171875,-0.31689095497131,-136.13058471679688,0.04545631632209,0.01140163186938,-9.63882827758789,0.14342691004276,0.26901349425316,0.20536214113235
464,2977889574,179.94784545898438,-0.31680905818939,-136.13076782226562,0.05108560621738,0.00688818795606,-9.60906505584717,0.10741330683231,0.19806207716465,0.17992718517780
465,2977897907,179.94825744628906,-0.31673038005829,-136.13085937500000,0.05049217492342,0.02463467977941,-9.65058135986328,0.17152571678162,0.19839505851269,0.13607563078403
466,2977906240,179.94847106933594,-0.31589314341545,-136.13041687011719,0.05908963456750,0.01245309971273,-9.63846302032471,0.14393918216228,0.10782311111689,0.10428835451603
467,2977914573,179.94906616210938,-0.31635388731956,-136.12930297851562,0.05652891844511,0.00989953428507,-9.63392829895020,0.19432239234447,0.26427486538887,0.14537358283997
468,2977922906,179.94932556152344,-0.31639224290848,-136.12911987304688,0.03745921328664,0.01743117161095,-9.64525699615479,0.15136733651161,0.21204744279385,0.13548648357391
469,2977931239,179.94967651367188,-0.31586080789566,-136.12863159179688,0.04147955775261,-0.00287525239401,-9.65568733215332,0.16484041512012,0.14368306100368,0.12385763972998
470,2977939572,179.95019531250000,-0.31588882207870,-136.12887573242188,0.05462625995278,0.01234580669552,-9.64356994628906,0.18238615989685,0.21107409894466,0.18638196587563
471,2977947905,179.95033264160156,-0.31605514883995,-136.12986755371094,0.06336703896523,0.01665897108614,-9.63684654235840,0.13776615262032,0.22931143641472,0.23125812411308
472,2977956238,179.95010375976562,-0.31546851992607,-136.12983703613281,0.05110737308860,0.02348324470222,-9.66221809387207,0.09053352475166,0.13720265030861,0.15608036518097
473,2977964571,179.94921875000000,-0.31536942720413,-136.12969970703125,0.05418282747269,0.00964957103133,-9.65503025054932,0.01773785613477,0.19660204648972,0.09112263470888
474,2977972904,179.94937133789062,-0.31475329399109,-136.12988281250000,0.06588483601809,0.02496342174709,-9.64388465881348,0.13602438569069,0.13307876884937,0.18013210594654
475,2977981237,179.94911193847656,-0.31529638171196,-136.13050842285156,0.04820309951901,0.01638742908835,-9.64566612243652,0.09245458245277,0.27449491620064,0.18010650575161
476,2977989570,179.94894409179688,-0.31524735689163,-136.13098144531250,0.04421172291040,0.00022889097454,-9.65071582794189,0.09806410223246,0.20182737708092,0.21624816954136
477,2977997903,179.94577026367188,-0.30769413709641,-136.13316345214844,0.06502649188042,0.01339012198150,-9.65363407135010,0.08384819328785,0.21184252202511,0.23033599555492
478,2978006236,179.94593811035156,-0.30724313855171,-136.13308715820312,0.05830259993672,0.00552174821496,-9.63156032562256,0.14019951224327,0.15446664392948,0.14934378862381
479,2978014569,179.94612121582031,-0.30779087543488,-136.13452148437500,0.07059855759144,0.00621582055464,-9.66080856323242,0.14148022234440,0.27469986677170,0.27792724967003
480,2978022902,179.94644165039062,-0.30860731005669,-136.13504028320312,0.05122886225581,0.00752515392378,-9.65047359466553,0.16202284395695,0.30797275900841,0.22006469964981
481,2978031235,179.94538879394531,-0.30857759714127,-136.13513183593750,0.04562083259225,0.00954189244658,-9.63443565368652,-0.00432880548760,0.20602808892727,0.07677866518497
482,2978039568,179.94590759277344,-0.30864089727402,-136.13490295410156,0.04773092269897,0.01009266171604,-9.62713336944580,0.18294966220856,0.21783624589443,0.13108083605766
483,2978047901,179.94432067871094,-0.30916491150856,-136.13420104980469,0.04406158998609,0.02704457379878,-9.63982963562012,-0.06639209389687,0.27085772156715,0.22482894361019
484,2978056234,179.94384765625000,-0.30911105871201,-136.13354492187500,0.06742984801531,0.02066456340253,-9.64783287048340,0.06312628090382,0.20428635179996,0.08072327077389
485,2978064567,179.94474792480469,-0.30815288424492,-136.13388061523438,0.05566368252039,0.01478503271937,-9.65218353271484,0.23125812411308,0.09499038010836,0.10318693518639
486,2978072900,179.94432067871094,-0.30862623453140,-136.13383483886719,0.06078485772014,0.01803231798112,-9.63992977142334,0.06827473640442,0.26660576462746,0.15244311094284
487,2978081233,179.94488525390625,-0.30891722440720,-136.13377380371094,0.04803149029613,0.00718164304271,-9.62160396575928,0.19173537194729,0.24460314214230,0.14483568072319
488,2978089566,179.94439697265625,-0.30881333351135,-136.13395690917969,0.02963422797620,0.01349026151001,-9.65093040466309,0.06246031448245,0.19824138283730,0.17905633151531
489,2978097899,179.94410705566406,-0.30897134542465,-136.13554382324219,0.05419689044356,0.01187320984900,-9.64448547363281,0.08881735056639,0.22764649987221,0.20787231624126
490,2978106232,179.94422912597656,-0.30892661213875,-136.13594055175781,0.05548460409045,-0.00286829005927,-9.63078117370605,0.13461561501026,0.20495228469372,0.20444001257420
491,2978114565,179.94445800781250,-0.30846881866455,-136.13653564453125,0.06303769350052,0.01309654302895,-9.64389896392822,0.15111117064953,0.15359574556351,0.18953250348568
492,2978122898,179.94430541992188,-0.30781173706055,-136.13679504394531,0.05937595665455,0.00875534489751,-9.66464996337891,0.10062550753355,0.13164435327053,0.18786759674549
493,2978131231,179.94429016113281,-0.30791598558426,-136.13829040527344,0.05880352109671,-0.01463471632451,-9.64388465881348,0.12106569111347,0.22211383283138,0.24321997165680
494,2978139564,179.94435119628906,-0.30794790387154,-136.13812255859375,0.04239489883184,0.00871931575239,-9.65434265136719,0.12956959009171,0.21476255357265,0.13817597925663
495,2978147897,179.94453430175781,-0.30837294459343,-136.13714599609375,0.05886058509350,0.00273925950751,-9.63131809234619,0.14317075908184,0.25930571556091,0.20151999592781
496,2978156230,179.94467163085938,-0.30725386738777,-136.13679504394531,0.05184380710125,0.00537893781438,-9.64391326904297,0.13717702031136,0.07642006874084,0.11632704734802
497,2978164563,179.94529724121094,-0.30718523263931,-136.13801574707031,0.05403257533908,0.01706668362021,-9.64166069030762,0.19921472668648,0.19998313486576,0.16507095098495
498,2978172896,179.94636535644531,-0.30796965956688,-136.13740539550781,0.04546358808875,0.01389811001718,-9.62408733367920,0.24816350638866,0.30536010861397,0.08430925011635
499,2978181229,179.94621276855469,-0.30794170498848,-136.13725280761719,0.03953394293785,0.00763242924586,-9.65096759796143,0.10387852787971,0.20505475997925,0.15707929432392
500,2978189562,179.94630432128906,-0.30878654122353,-136.13691711425781,0.04900412634015,0.01071495842189,-9.64523696899414,0.13287384808064,0.31250646710396,0.11794074624777
501,2978197895,179.94670104980469,-0.30836302042007,-136.13703918457031,0.05569941923022,0.00824028439820,-9.62413692474365,0.17142327129841,0.15792456269264,0.12460044771433
502,2978206228,179.94718933105469,-0.30875381827354,-136.13729858398438,0.04999140650034,0.01904112845659,-9.65010833740234,0.17769874632359,0.25730779767036,0.18976305425167
503,2978214561,179.94731140136719,-0.30912408232689,-136.13720703125000,0.06641394644976,-0.00058688846184,-9.63566493988037,0.13645982742310,0.25328636169434,0.13146504759789
504,2978222894,179.94743347167969,-0.30888029932976,-136.13650512695312,0.04492700845003,0.01356894336641,-9.66434955596924,0.13517911732197,0.18225808441639,0.07447338104248
505,2978231227,179.94822692871094,-0.30995213985443,-136.13708496093750,0.04954059049487,0.00774652883410,-9.65353393554688,0.22014153003693,0.33707049489021,0.16852885484695
506,2978239560,179.94854736328125,-0.30943971872330,-136.13726806640625,0.04893943667412,-0.00536492094398,-9.65045833587646,0.15912842750549,0.15018905699253,0.18010647594929
507,2978247893,179.94825744628906,-0.30972632765770,-136.13760375976562,0.05335315316916,0.00731047010049,-9.63457870483398,0.08684505522251,0.24204170703888,0.20374841988087
508,2978256226,179.94779968261719,-0.30998557806015,-136.13777160644531,0.05640016496181,0.00110153784044,-9.61093139648438,0.06468874961138,0.24296380579472,0.17967104911804
509,2978264559,179.94718933105469,-0.31098645925522,-136.13829040527344,0.04507011175156,0.00690276781097,-9.63415813446045,0.05052407458425,0.32889956235886,0.15538875758648
510,2978272892,179.94741821289062,-0.31176063418388,-136.13859558105469,0.04577104374766,0.01827551424503,-9.65620231628418,0.14708973467350,0.30300357937813,0.19340027868748
511,2978281225,179.94729614257812,-0.31176370382309,-136.13932800292969,0.04771661385894,0.00975647754967,-9.62703990936279,0.10672170668840,0.21020321547985,0.19844625890255
512,2978289558,179.94708251953125,-0.31177321076393,-136.13928222656250,0.07314497232437,0.01781773194671,-9.62977981567383,0.09583565592766,0.21125338971615,0.15075257420540
513,2978297891,179.94818115234375,-0.31177416443825,-136.14027404785156,0.05737295374274,0.01539291813970,-9.63845634460449,0.25420844554901,0.20974214375019,0.16601866483688
514,2978306224,179.94729614257812,-0.31111440062523,-136.14035034179688,0.05497675016522,0.02649413049221,-9.65929889678955,0.01420309487730,0.13210543990135,0.16758114099503
515,2978314557,179.94746398925781,-0.31107109785080,-136.14013671875000,0.04663681238890,0.02145176380873,-9.63523769378662,0.14242795109749,0.20292875170708,0.17744259536266
516,2978322890,179.94683837890625,-0.31071618199348,-136.13955688476562,0.04713008180261,0.00564359314740,-9.65429973602295,0.04527315497398,0.16927166283131,0.08825384080410
517,2978331223,179.94709777832031,-0.31097871065140,-136.14060974121094,0.07023376226425,0.02289625070989,-9.63742542266846,0.15515822172165,0.24004381895065,0.14452831447124
518,2978339556,179.94708251953125,-0.31147250533104,-136.14120483398438,0.05268054082990,0.00354748009704,-9.64483642578125,0.11868355423212,0.27072963118553,0.22739036381245
519,2978347889,179.94723510742188,-0.31115135550499,-136.13963317871094,0.03647949919105,0.01085086259991,-9.64356994628906,0.14168517291546,0.16878502070904,0.05449428781867
520,2978356222,179.94764709472656,-0.31093180179596,-136.13951110839844,0.04979120939970,0.00229634949937,-9.65628910064697,0.16934850811958,0.18515248596668,0.14457954466343
521,2978364555,179.94718933105469,-0.31092244386673,-136.14094543457031,0.05300971865654,-0.00345482304692,-9.64329147338867,0.07058002054691,0.20825652778149,0.18640761077404
522,2978372888,179.94732666015625,-0.31119167804718,-136.14042663574219,0.04961941391230,0.00330486334860,-9.65528774261475,0.13489736616611,0.24296383559704,0.09614303708076
523,2978381221,179.94778442382812,-0.31094557046890,-136.14151000976562,0.05589946731925,0.00286829005927,-9.62370681762695,0.17708401381969,0.17938929796219,0.19368204474449
524,2978389554,179.94761657714844,-0.31122604012489,-136.14204406738281,0.04122183471918,0.02142991684377,-9.64665317535400,0.10139395296574,0.24398839473724,0.22398367524147
525,2978397887,179.94827270507812,-0.31151232123375,-136.14233398437500,0.02292486093938,-0.00188835058361,-9.65586566925049,0.20192979276180,0.24365539848804,0.11904214322567
526,2978406220,179.94827270507812,-0.31149858236313,-136.14254760742188,0.06901802122593,0.01908418908715,-9.62755584716797,0.12111690640450,0.20963969826698,0.18038824200630
527,2978414553,179.94869995117188,-0.31164607405663,-136.14280700683594,0.04904704540968,0.01697369664907,-9.62970829010010,0.17321625351906,0.22838930785656,0.10385291278362
528,2978422886,179.94902038574219,-0.31222373247147,-136.14236450195312,0.05078518390656,-0.00213870010339,-9.64010143280029,0.15941019356251,0.27943852543831,0.10515924543142
529,2978431219,179.94985961914062,-0.31201589107513,-136.14295959472656,0.04083532094955,0.00835430435836,-9.63191127777100,0.22252365946770,0.18543425202370,0.21781064569950
530,2978439552,179.94982910156250,-0.31104171276093,-136.14256286621094,0.06278765201569,-0.00888383109123,-9.64015102386475,0.11750529706478,0.09417073428631,0.10856591910124
531,2978447885,179.95010375976562,-0.31221285462379,-136.14385986328125,0.05192964151502,0.01131579745561,-9.64217567443848,0.15508140623569,0.34910926222801,0.20139195024967
532,2978456218,179.95002746582031,-0.31276282668114,-136.14431762695312,0.03194459527731,0.01150892395526,-9.64766883850098,0.11061508208513,0.27731254696846,0.21453204751015
533,2978464551,179.95030212402344,-0.31271627545357,-136.14448547363281,0.07588478177786,0.02891214936972,-9.65294837951660,0.15528631210327,0.20467056334019,0.16227899491787
534,2978472884,179.94999694824219,-0.31248414516449,-136.14450073242188,0.05082810297608,0.01734564453363,-9.63935756683350,0.08374574035406,0.18179704248905,0.16197161376476
535,2978481217,179.95046997070312,-0.31298106908798,-136.14447021484375,0.06330257654190,0.00449900375679,-9.64004325866699,0.17949175834656,0.26950016617775,0.09411950409412
536,2978489550,179.94946289062500,-0.31301411986351,-136.14457702636719,0.05112136900425,0.00821861624718,-9.63447856903076,-0.00015368541062,0.21609450876713,0.17060360312462
537,2978497883,179.94934082031250,-0.31242638826370,-136.14506530761719,0.05765191465616,0.01695223711431,-9.64173221588135,0.10851470381021,0.13868826627731,0.13190048933029
538,2978506216,179.94863891601562,-0.31282329559326,-136.14503479003906,0.05770913511515,0.01657313667238,-9.64488601684570,0.03720467910171,0.25776886940002,0.15180276334286
539,2978514549,179.94825744628906,-0.31300798058510,-136.14631652832031,0.05521982908249,0.00058618438197,-9.64894294738770,0.07575410604477,0.23136056959629,0.28051429986954
540,2978522882,179.94760131835938,-0.31299668550491,-136.14642333984375,0.03555670380592,-0.00100893469062,-9.64477920532227,0.04114926233888,0.20917864143848,0.17068044841290
541,2978531215,179.94779968261719,-0.31301116943359,-136.14685058593750,0.05421826615930,0.01077177561820,-9.63049411773682,0.14562973380089,0.21161198616028,0.17892822623253
542,2978539548,179.94792175292969,-0.31268805265427,-136.14726257324219,0.06466916948557,0.01297563966364,-9.63642406463623,0.13674159348011,0.17234537005424,0.20674528181553
543,2978547881,179.94772338867188,-0.31342345476151,-136.14823913574219,0.05959738418460,0.00595801603049,-9.65797615051270,0.09842269867659,0.29777830839157,0.18925076723099
544,2978556214,179.94647216796875,-0.31287491321564,-136.14831542968750,0.05867477133870,0.03299606591463,-9.65878391265869,-0.02986619621515,0.14486129581928,0.16650532186031
545,2978564547,179.94561767578125,-0.31214597821236,-136.14852905273438,0.05527001619339,0.00217446428724,-9.65325546264648,0.02134946174920,0.12185971438885,0.18371810019016
546,2978572880,179.94580078125000,-0.31156030297279,-136.14932250976562,0.04853203892708,-0.00231752102263,-9.65900611877441,0.13971284031868,0.14081424474716,0.25384986400604
547,2978581213,179.94610595703125,-0.31207937002182,-136.14933776855469,0.04499868676066,0.02556451782584,-9.64598751068115,0.15843683481216,0.27175417542458,0.17690469324589
548,2978589546,179.94616699218750,-0.31200173497200,-136.14923095703125,0.05790247395635,0.00507882935926,-9.64296340942383,0.12857064604759,0.20121262967587,0.14447708427906
549,2978597879,179.94664001464844,-0.31116896867752,-136.14949035644531,0.05037747323513,0.00954189244658,-9.64825534820557,0.17938929796219,0.10941120237112,0.09691145271063
550,2978606212,179.94787597656250,-0.31070512533188,-136.14901733398438,0.05215867608786,-0.00655907392502,-9.65250396728516,0.26983314752579,0.15526066720486,0.10083043575287
551,2978614545,179.94789123535156,-0.31027573347092,-136.14987182617188,0.07894592732191,0.00653769867495,-9.65460681915283,0.12544570863247,0.15869298577309,0.21261094510555
552,2978622878,179.94934082031250,-0.30995512008667,-136.14941406250000,0.04962642490864,0.00627304334193,-9.64589500427246,0.29368001222610,0.17157696187496,0.10090727359056
553,2978631211,179.94972229003906,-0.30919125676155,-136.15007019042969,0.05753747001290,-0.00450629089028,-9.62958621978760,0.16878499090672,0.11852984875441,0.17472749948502
554,2978639544,179.94932556152344,-0.30879107117653,-136.14974975585938,0.07343824207783,-0.00032187794568,-9.62737655639648,0.07414040714502,0.16176669299603,0.11950320750475
555,2978647877,179.94876098632812,-0.30857124924660,-136.15197753906250,0.04861787334085,0.01035731658340,-9.61328506469727,0.05326480045915,0.18277040123940,0.27380338311195
556,2978656210,179.94885253906250,-0.30811262130737,-136.15196228027344,0.05504827946424,-0.00255356496200,-9.63173198699951,0.13074783980846,0.15572173893452,0.15500454604626
557,2978664543,179.94883728027344,-0.30828744173050,-136.15228271484375,0.03640783950686,-0.00478550512344,-9.63607406616211,0.12004110962152,0.23059214651585,0.20469616353512
558,2978672876,179.94869995117188,-0.30884176492691,-136.15255737304688,0.07025533169508,0.00499296933413,-9.63503646850586,0.10421150922775,0.27703073620796,0.19194024801254
559,2978681209,179.94876098632812,-0.30876579880714,-136.15328979492188,0.04671521857381,0.00967779662460,-9.63223266601562,0.12921099364758,0.19970138370991,0.19831819832325
560,2978689542,179.94982910156250,-0.30909630656242,-136.15319824218750,0.06053451076150,0.02905484847724,-9.67240333557129,0.24849647283554,0.25095546245575,0.14644938707352
561,2978697875,179.95001220703125,-0.30832189321518,-136.15383911132812,0.06087808683515,-0.00643736403435,-9.65504360198975,0.14222304522991,0.11555862426758,0.15723298490047
562,2978706208,179.94993591308594,-0.30882078409195,-136.15429687500000,0.03823896497488,0.01628671400249,-9.63553810119629,0.11320211738348,0.27057597041130,0.21401973068714
563,2978714541,179.94935607910156,-0.30942082405090,-136.15429687500000,0.04663653671741,0.01462756376714,-9.64108085632324,0.05021670833230,0.28120586276054,0.17057800292969
564,2978722874,179.95031738281250,-0.30951541662216,-136.15420532226562,0.03925480321050,0.01121565792710,-9.64899158477783,0.23689322173595,0.22208821773529,0.14785814285278
565,2978731207,179.95043945312500,-0.30878219008446,-136.15432739257812,0.05536250025034,0.01261716522276,-9.62964344024658,0.13430823385715,0.12139866501093,0.17270398139954
566,2978739540,179.95127868652344,-0.30856513977051,-136.15443420410156,0.04057092592120,0.01744578406215,-9.62723350524902,0.22372750937939,0.18397423624992,0.17239660024643
567,2978747873,179.95149230957031,-0.30799776315689,-136.15487670898438,0.04072113335133,0.00354065722786,-9.63580894470215,0.14634694159031,0.14178760349751,0.16573691368103
568,2978756206,179.95124816894531,-0.30825355648994,-136.15513610839844,0.06070637702942,0.00176008895505,-9.64608192443848,0.09329985827208,0.24088908731937,0.18948130309582
569,2978764539,179.95191955566406,-0.30866271257401,-136.15496826171875,0.04720876365900,0.00057938025566,-9.63799095153809,0.19980385899544,0.25935694575310,0.19147922098637
570,2978772872,179.95176696777344,-0.30882045626640,-136.15487670898438,0.05145056918263,0.00196023937315,-9.63402271270752,0.10446766018867,0.22913211584091,0.14688482880592
571,2978781205,179.95133972167969,-0.30898335576057,-136.15441894531250,0.04690834507346,0.00635172473267,-9.62353515625000,0.06760877370834,0.22900405526161,0.18548548221588
572,2978789538,179.95173645019531,-0.30919599533081,-136.15505981445312,0.06617095321417,0.01668758317828,-9.64736843109131,0.16881060600281,0.23668833076954,0.23489533364773
573,2978797871,179.95217895507812,-0.30954319238663,-136.15495300292969,0.05193679407239,0.01667327620089,-9.62129592895508,0.17590573430061,0.25051999092102,0.16735060513020
574,2978806204,179.95181274414062,-0.30938145518303,-136.15528869628906,0.04198003560305,0.01386220939457,-9.63552284240723,0.07526741921902,0.19112059473991,0.20044417679310
575,2978814537,179.95074462890625,-0.30895093083382,-136.15625000000000,0.02964139357209,0.00168054015376,-9.65533733367920,-0.00622425926849,0.15815509855747,0.22190894186497
576,2978822870,179.95050048828125,-0.30863627791405,-136.15621948242188,0.03784569352865,0.00796826742589,-9.62429332733154,0.09178860485554,0.17288328707218,0.15182836353779
577,2978831203,179.95036315917969,-0.30807650089264,-136.15728759765625,0.06265175342560,0.01768898032606,-9.63985061645508,0.10457010567188,0.14260724186897,0.22139663994312
578,2978839536,179.95034790039062,-0.30792918801308,-136.15687561035156,0.05448334291577,0.01568640582263,-9.62661838531494,0.11904216557741,0.19365642964840,0.10782312601805
579,2978847869,179.94992065429688,-0.30855864286423,-136.15774536132812,0.04723022133112,0.00195272616111,-9.65079498291016,0.07029826194048,0.28515043854713,0.16225336492062
580,2978856202,179.95045471191406,-0.30892983078957,-136.15747070312500,0.04471957311034,0.01255323924124,-9.62703990936279,0.18510127067566,0.25515618920326,0.12631659209728
581,2978864535,179.94932556152344,-0.30937603116035,-136.15734863281250,0.06021977588534,-0.00047175749205,-9.62887191772461,-0.01324255857617,0.26373696327209,0.11645511537790
582,2978872868,179.94934082031250,-0.30931708216667,-136.15715026855469,0.05707253515720,0.00663068564609,-9.63771915435791,0.12168043851852,0.20372283458710,0.13428263366222
583,2978881201,179.95065307617188,-0.30917936563492,-136.15704345703125,0.03700165823102,-0.00366225559264,-9.64568042755127,0.27961778640747,0.19421993196011,0.12869872152805
584,2978889534,179.95013427734375,-0.30905106663704,-136.15718078613281,0.05419709160924,-0.00289690145291,-9.63480758666992,0.05882309004664,0.19542379677296,0.17424082756042
585,2978897867,179.94952392578125,-0.30919334292412,-136.15667724609375,0.06222258135676,0.00044347625226,-9.64387035369873,0.04793704301119,0.22669878602028,0.15579858422279
586,2978906200,179.94920349121094,-0.30887255072594,-136.15702819824219,0.05755177512765,0.00997821614146,-9.61676883697510,0.08226011693478,0.17219169437885,0.19918909668922
587,2978914533,179.94967651367188,-0.30811172723770,-136.15910339355469,0.04156516864896,0.01002828590572,-9.64580154418945,0.17813417315483,0.11899092793465,0.23837886750698
588,2978922866,179.94992065429688,-0.30821436643600,-136.15994262695312,0.03970543295145,0.00608706939965,-9.64226818084717,0.14665430784225,0.22306156158447,0.26102188229561
589,2978931199,179.94909667968750,-0.30772417783737,-136.16091918945312,0.03250974789262,0.00289738783613,-9.62687587738037,0.02291193231940,0.15108555555344,0.14998415112495
590,2978939532,179.94895935058594,-0.30756476521492,-136.16119384765625,0.05362486466765,0.01398380752653,-9.62325572967529,0.10441642254591,0.19219639897346,0.19222199916840
591,2978947865,179.94905090332031,-0.30714276432991,-136.16278076171875,0.04816009104252,-0.00455636112019,-9.64289760589600,0.13248960673809,0.15946139395237,0.24726702272892
592,2978956198,179.94888305664062,-0.30678653717041,-136.16264343261719,0.05898234248161,0.00912702735513,-9.63373470306396,0.10019008070230,0.16750428080559,0.14171074330807
593,2978964531,179.94906616210938,-0.30639412999153,-136.16143798828125,0.04438339173794,0.01424131076783,-9.62818431854248,0.14416971802711,0.16412322223186,0.03787064924836
594,2978972864,179.94857788085938,-0.30631342530251,-136.16143798828125,0.04401859641075,0.01031439937651,-9.64379882812500,0.06176872178912,0.19995751976967,0.15743790566921
595,2978981197,179.94825744628906,-0.30650705099106,-136.16194152832031,0.05647869035602,0.01622223295271,-9.63625907897949,0.08256749063730,0.23445990681648,0.16583938896656
596,2978989530,179.94776916503906,-0.30682522058487,-136.16233825683594,0.05505536124110,0.01287484727800,-9.62640380859375,0.06248592585325,0.24813789129257,0.20423509180546
597,2978997863,179.94633483886719,-0.30739232897758,-136.16223144531250,0.05377512052655,0.00447740545496,-9.63316345214844,-0.05140776559711,0.27972024679184,0.18251422047615
598,2979006196,179.94648742675781,-0.30740612745285,-136.16218566894531,0.05503397434950,-0.01533569488674,-9.63918590545654,0.13894441723824,0.21186816692352,0.15264804661274
599,2979014529,179.94635009765625,-0.30734026432037,-136.16281127929688,0.05874651297927,0.00680274842307,-9.63669776916504,0.10472379624844,0.20249332487583,0.18205317854881
600,2979022862,179.94664001464844,-0.30736729502678,-136.16252136230469,0.04999142512679,0.00357669894584,-9.62231349945068,0.15497894585133,0.21378920972347,0.12170603871346
601,2979031195,179.94714355468750,-0.30731061100960,-136.16220092773438,0.04584972187877,0.00884806644171,-9.65327644348145,0.18164333701134,0.20405580103397,0.15520945191383
602,2979039528,179.94700622558594,-0.30818438529968,-136.16241455078125,0.04768789187074,0.01408363413066,-9.64949893951416,0.10567152500153,0.31483733654022,0.18589529395103
603,2979047861,179.94679260253906,-0.30795210599899,-136.16328430175781,0.06411072611809,0.01339687500149,-9.64375686645508,0.09219843894243,0.18320581316948,0.20349228382111
604,2979056194,179.94619750976562,-0.30795472860336,-136.16329956054688,0.05939720943570,0.00429170578718,-9.65881252288818,0.05177918076515,0.21148395538330,0.15889792144299
605,2979064527,179.94648742675781,-0.30749595165253,-136.16340637207031,0.05185066908598,0.00329717760906,-9.63295555114746,0.15459471940994,0.15410804748535,0.17144888639450
606,2979072860,179.94650268554688,-0.30704015493393,-136.16314697265625,0.04407564923167,0.01007814146578,-9.64161014556885,0.12252566963434,0.15700243413448,0.12726432085037
607,2979081193,179.94641113281250,-0.30746048688889,-136.16256713867188,0.04506291076541,0.00587248429656,-9.62544441223145,0.10902699083090,0.25958746671677,0.13377033174038
608,2979089526,179.94599914550781,-0.30794388055801,-136.16279602050781,0.06064895540476,0.01459895260632,-9.63307666778564,0.07122037559748,0.26898786425591,0.18471705913544
609,2979097859,179.94557189941406,-0.30741918087006,-136.16296386718750,0.05513411387801,0.01454172935337,-9.63071632385254,0.07037510722876,0.14821675419807,0.14660306274891
610,2979106192,179.94538879394531,-0.30746376514435,-136.16275024414062,0.03695158660412,0.01591507531703,-9.62262630462646,0.09916550666094,0.21573588252068,0.13128575682640
611,2979114525,179.94587707519531,-0.30695512890816,-136.16258239746094,0.05655037611723,0.01865461468697,-9.64273357391357,0.17885139584541,0.14893396198750,0.14273533225060
612,2979122858,179.94535827636719,-0.30733522772789,-136.16163635253906,0.04793835431337,-0.00030041940045,-9.64737510681152,0.06023187190294,0.25746148824692,0.04545246064663
613,2979131191,179.94548034667969,-0.30674925446510,-136.16221618652344,0.05735839903355,0.03214462101460,-9.63101005554199,0.13448752462864,0.13978968560696,0.17198677361012
614,2979139524,179.94558715820312,-0.30709353089333,-136.16198730468750,0.05519849061966,0.01970608159900,-9.65654563903809,0.13366788625717,0.25149336457253,0.13248962163925
615,2979147857,179.94520568847656,-0.30741950869560,-136.16200256347656,0.05246610194445,0.01920538395643,-9.64154624938965,0.07659937441349,0.24964912235737,0.14796063303947
616,2979156190,179.94622802734375,-0.30834004282951,-136.16307067871094,0.04633611813188,0.01266768481582,-9.62064552307129,0.24181117117405,0.32129216194153,0.28614944219589
617,2979164523,179.94671630859375,-0.30795800685883,-136.16285705566406,0.04967649281025,0.01487791351974,-9.62201118469238,0.18131035566330,0.16430251300335,0.10784873366356
618,2979172856,179.94656372070312,-0.30832093954086,-136.16325378417969,0.07437526434660,0.00545761920512,-9.64888477325439,0.10216238349676,0.25538673996925,0.20505477488041
619,2979181189,179.94615173339844,-0.30872613191605,-136.16238403320312,0.04148649051785,0.00665929680690,-9.63805484771729,0.07288531213999,0.25858852267265,0.10113780200481
620,2979189522,179.94685363769531,-0.30814042687416,-136.16197204589844,0.05730142444372,0.00509282434359,-9.64495754241943,0.20464491844177,0.13994336128235,0.10664486140013
621,2979197855,179.94705200195312,-0.30795940756798,-136.16255187988281,0.05642901733518,0.02165910974145,-9.64505958557129,0.14378550648689,0.18950691819191,0.14934380352497
622,2979206188,179.94689941406250,-0.30805632472038,-136.16238403320312,0.06322398036718,0.01185226067901,-9.65418529510498,0.10326378792524,0.22249804437160,0.13622929155827
623,2979214521,179.94683837890625,-0.30834120512009,-136.16244506835938,0.04471957311034,-0.00104431505315,-9.62702560424805,0.11525123566389,0.24337364733219,0.20169928669930
624,2979222854,179.94631958007812,-0.30795925855637,-136.16239929199219,0.06707220524549,0.00658776843920,-9.65183162689209,0.05564692243934,0.16535268723965,0.15413364768028
625,2979231187,179.94514465332031,-0.30796340107918,-136.16284179687500,0.04534190520644,0.00418396247551,-9.64121723175049,-0.01762259379029,0.21017760038376,0.19944524765015
626,2979239520,179.94573974609375,-0.30860003829002,-136.16278076171875,0.04461959376931,0.00503583066165,-9.62955856323242,0.19086447358131,0.28743013739586,0.14921571314335
627,2979247853,179.94561767578125,-0.30788409709930,-136.16363525390625,0.05254453793168,0.01302504818887,-9.62515830993652,0.10702908039093,0.12413938343525,0.20879441499710
628,2979256186,179.94435119628906,-0.30782526731491,-136.16401672363281,0.06238709762692,0.00629450194538,-9.62932872772217,-0.03096760809422,0.20377402007580,0.20356911420822
629,2979264519,179.94427490234375,-0.30829310417175,-136.16493225097656,0.03906866535544,0.01183756720275,-9.65422153472900,0.11023087054491,0.26652893424034,0.27090898156166
630,2979272852,179.94389343261719,-0.30877366662025,-136.16529846191406,0.04754494875669,0.02367590926588,-9.63420677185059,0.07373058795929,0.26852682232857,0.20328737795353
631,2979281185,179.94454956054688,-0.30866369605064,-136.16493225097656,0.04435499012470,0.00102306320332,-9.63984489440918,0.20146875083447,0.19652521610260,0.09867884218693
632,2979289518,179.94400024414062,-0.30813053250313,-136.16529846191406,0.04072125256062,0.00704587111250,-9.64120292663574,0.05354655534029,0.14757642149925,0.20239087939262
633,2979297851,179.94468688964844,-0.30823487043381,-136.16584777832031,0.05595669150352,0.01278928294778,-9.65496444702148,0.20359472930431,0.22219067811966,0.21478815376759
634,2979306184,179.94483947753906,-0.30822369456291,-136.16603088378906,0.04928308725357,0.01055044308305,-9.64392089843750,0.14135216176510,0.20915305614471,0.18064439296722
635,2979314517,179.94523620605469,-0.30889645218849,-136.16584777832031,0.05028464272618,0.01166654471308,-9.66208267211914,0.16786289215088,0.29140034317970,0.16486601531506
636,2979322850,179.94462585449219,-0.30928665399551,-136.16525268554688,0.05108560621738,0.00405566208065,-9.63821315765381,0.04755282774568,0.25717970728874,0.08704998344183
637,2979331183,179.94427490234375,-0.30940523743629,-136.16616821289062,0.05273808911443,-0.00441996194422,-9.62918663024902,0.07790569216013,0.22531561553478,0.20490105450153
638,2979339516,179.94461059570312,-0.30944630503654,-136.16633605957031,0.05647169426084,0.01239587645978,-9.62948608398438,0.16171547770500,0.21588960289955,0.17859525978565
639,2979347849,179.94413757324219,-0.30942019820213,-136.16641235351562,0.05186526477337,0.00866924598813,-9.65872669219971,0.06363856792450,0.20646351575851,0.14742273092270
640,2979356182,179.94392395019531,-0.30926683545113,-136.16571044921875,0.04850342869759,0.00728874700144,-9.63939285278320,0.09373530000448,0.19324661791325,0.07329513132572
641,2979364515,179.94406127929688,-0.30840843915939,-136.16567993164062,0.05421183630824,0.00095165846869,-9.63703346252441,0.14040441811085,0.10687538981438,0.14450268447399
642,2979372848,179.94447326660156,-0.30812579393387,-136.16593933105469,0.04102190583944,0.01676662638783,-9.64509391784668,0.17021940648556,0.17667418718338,0.19078762829304
643,2979381181,179.94439697265625,-0.30790495872498,-136.16641235351562,0.05469063669443,0.00333322491497,-9.63406372070312,0.11140911281109,0.18430721759796,0.13056854903698
644,2979389514,179.94529724121094,-0.30724582076073,-136.16697692871094,0.06764416396618,-0.00062245765002,-9.63642501831055,0.22805634140968,0.13261769711971,0.22659635543823
645,2979397847,179.94555664062500,-0.30670326948166,-136.16665649414062,0.05541307479143,-0.01271060202271,-9.67006397247314,0.15277610719204,0.14496375620365,0.11845304071903
646,2979406180,179.94589233398438,-0.30680426955223,-136.16671752929688,0.02897645719349,0.00580135127530,-9.65443611145020,0.16197161376476,0.22242119908333,0.16566008329391
647,2979414513,179.94590759277344,-0.30624061822891,-136.16668701171875,0.03903306275606,0.00711707863957,-9.63584518432617,0.12111692130566,0.14324760437012,0.19783155620098
648,2979422846,179.94512939453125,-0.30620855093002,-136.16734313964844,0.05432576313615,-0.01929888874292,-9.62606716156006,0.02834215015173,0.20623299479485,0.23548446595669
649,2979431179,179.94383239746094,-0.30618056654930,-136.16734313964844,0.05748739838600,0.01802516356111,-9.63101673126221,-0.03580869361758,0.20794914662838,0.10421150922775
650,2979439512,179.94445800781250,-0.30564844608307,-136.16712951660156,0.04585687443614,0.03936209529638,-9.63845634460449,0.19696062803268,0.14650060236454,0.13023556768894
651,2979447845,179.94470214843750,-0.30596783757210,-136.16758728027344,0.07900299131870,0.03177266940475,-9.64136695861816,0.14719219505787,0.24926495552063,0.19480906426907
652,2979456178,179.94445800781250,-0.30586141347885,-136.16870117187500,0.04150079563260,0.00854049436748,-9.66150188446045,0.09217282384634,0.19724240899086,0.29275786876678
653,2979464511,179.94439697265625,-0.30581483244896,-136.16807556152344,0.04648620262742,-0.00450650695711,-9.64377593994141,0.11345824599266,0.20479860901833,0.09878129512072
654,2979472844,179.94418334960938,-0.30624270439148,-136.16752624511719,0.04795255511999,0.00014994686353,-9.64947032928467,0.09509284049273,0.26273801922798,0.09340230375528
655,2979481177,179.94468688964844,-0.30670112371445,-136.16807556152344,0.04921142756939,0.02305341884494,-9.63633823394775,0.18026016652584,0.26494085788727,0.13909809291363
656,2979489510,179.94400024414062,-0.30681449174881,-136.16764831542969,0.05213702097535,0.02208771742880,-9.64699554443359,0.03940749913454,0.22534123063087,0.10741329193115
657,2979497843,179.94284057617188,-0.30686503648758,-136.16802978515625,0.02970575727522,0.00490685040131,-9.64377021789551,-0.01933874748647,0.21663238108158,0.16130565106869
658,2979506176,179.94242858886719,-0.30730146169662,-136.16792297363281,0.05788795650005,-0.00885521993041,-9.64494323730469,0.07180950790644,0.26240500807762,0.14488691091537
659,2979514509,179.94181823730469,-0.30733180046082,-136.16889953613281,0.03378287702799,-0.00506421271712,-9.63788318634033,0.04588789865375,0.21514676511288,0.33143538236618
660,2979522842,179.94146728515625,-0.30761516094208,-136.16870117187500,0.04012744873762,0.00584387267008,-9.63149642944336,0.08133801072836,0.24419330060482,0.13430823385715
661,2979531175,179.94126892089844,-0.30789452791214,-136.16896057128906,0.04113600030541,0.02033553272486,-9.62728309631348,0.09383775293827,0.24380910396576,0.21773383021355
662,2979539508,179.94039916992188,-0.30809310078621,-136.16864013671875,0.04690834507346,0.01124426908791,-9.64487171173096,0.01620100252330,0.23576620221138,0.12022038549185
663,2979547841,179.94024658203125,-0.30764874815941,-136.16798400878906,0.06246577575803,-0.00673797819763,-9.64629554748535,0.10270027071238,0.15746350586414,0.03794748708606
664,2979556174,179.94064331054688,-0.30794540047646,-136.16899108886719,0.03444093838334,0.02233117632568,-9.62927150726318,0.16811902821064,0.24657543003559,0.27721002697945
665,2979564507,179.94117736816406,-0.30827912688255,-136.16966247558594,0.05589250102639,0.02550013549626,-9.64202499389648,0.18671497702599,0.25057125091553,0.18712478876114
666,2979572840,179.94128417968750,-0.30844083428383,-136.16955566406250,0.05479077622294,0.01457034144551,-9.64542293548584,0.13241277635098,0.22969563305378,0.14708971977234
667,2979581173,179.94071960449219,-0.30837765336037,-136.16998291015625,0.05517702922225,0.01180219091475,-9.64525127410889,0.05395638570189,0.20515720546246,0.16207407414913
668,2979589506,179.94163513183594,-0.30824935436249,-136.16990661621094,0.04305314272642,0.01067219674587,-9.65633773803711,0.23007985949516,0.19465537369251,0.14872905611992
669,2979597839,179.94262695312500,-0.30862441658974,-136.17060852050781,0.05307409539819,0.00391975790262,-9.64033699035645,0.24047924578190,0.25559166073799,0.16811904311180
670,2979606172,179.94190979003906,-0.30844604969025,-136.17070007324219,0.04137198254466,0.01924080401659,-9.65374183654785,0.03372114151716,0.18999359011650,0.16875939071178
671,2979614505,179.94265747070312,-0.30800378322601,-136.17179870605469,0.04087849706411,0.00710277305916,-9.64115238189697,0.21143269538879,0.15746350586414,0.23271812498569
672,2979622838,179.94302368164062,-0.30855050683022,-136.17105102539062,0.05249466001987,-0.00469236262143,-9.62379169464111,0.16286809742451,0.27705636620522,0.06635367125273
673,2979631171,179.94366455078125,-0.30877685546875,-136.17098999023438,0.06363169103861,0.01987775042653,-9.64300537109375,0.19867680966854,0.23858378827572,0.14591148495674
674,2979639504,179.94345092773438,-0.30836087465286,-136.17182922363281,0.04406151175499,0.01302532665431,-9.63854217529297,0.09537459909916,0.16040912270546,0.25779443979263
675,2979647837,179.94427490234375,-0.30939272046089,-136.17233276367188,0.05865348502994,-0.00396242924035,-9.64212608337402,0.21960365772247,0.33502140641212,0.13774055242538
676,2979656170,179.94403076171875,-0.31008461117744,-136.17262268066406,0.05546304583549,0.00251034367830,-9.63716888427734,0.08953455835581,0.29455086588860,0.19283676147461
677,2979664503,179.94509887695312,-0.30991593003273,-136.17353820800781,0.04214428737760,0.00967044103891,-9.64034461975098,0.24885508418083,0.19104377925396,0.19785715639591
678,2979672836,179.94540405273438,-0.31008347868919,-136.17349243164062,0.05710829794407,-0.00425594160333,-9.63461494445801,0.15764281153679,0.23072025179863,0.15328839421272
679,2979681169,179.94548034667969,-0.30988633632660,-136.17324829101562,0.05687212571502,-0.00547926733270,-9.63027286529541,0.12990258634090,0.18784199655056,0.09442687034607
680,2979689502,179.94590759277344,-0.31015047430992,-136.17337036132812,0.04064960777760,-0.00070813146885,-9.62893581390381,0.17265275120735,0.24168309569359,0.17342115938663
681,2979697835,179.94570922851562,-0.31104981899261,-136.17372131347656,0.04407581686974,0.00730305258185,-9.64133167266846,0.09493915736675,0.31955036520958,0.18822619318962
682,2979706168,179.94641113281250,-0.31193032860756,-136.17332458496094,0.04109321162105,0.01165932323784,-9.65000915527344,0.20510599017143,0.31586191058159,0.11225437372923
683,2979714501,179.94694519042969,-0.31162732839584,-136.17388916015625,0.05108596757054,0.01792536303401,-9.65192508697510,0.18648441135883,0.17518854141235,0.17936366796494
