// Start Time: Unknown
// Update Rate: 100.0Hz
//Filter Profile: human (46.1)
// Option Flags: AHS Disabled ICC Disabled
// Firmware Version: 4.0.2
PacketCounter	SampleTimeFine	Year	Month	Day	Second	UTC_Nano	UTC_Year	UTC_Month	UTC_Day	UTC_Hour	UTC_Minute	UTC_Second	UTC_Valid	Acc_X	Acc_Y	Acc_Z	Mat[1][1]	Mat[1][2]	Mat[1][3]	Mat[2][1]	Mat[2][2]	Mat[2][3]	Mat[3][1]	Mat[3][2]	Mat[3][3]
0	677854107													0.000000	0.000000	0.000000	-0.999018	-0.044057	-0.004717	-0.043926	0.998723	-0.024962	0.005811	-0.024730	-0.999677
1	677862440													0.063381	-0.257073	-9.667117	-0.999018	-0.044074	-0.004593	-0.043946	0.998723	-0.024912	0.005685	-0.024685	-0.999679
2	677870773													0.057902	-0.252466	-9.656137	-0.999034	-0.043795	-0.003683	-0.043692	0.998744	-0.024520	0.004753	-0.024335	-0.999693
3	677879106													0.051107	-0.267337	-9.647798	-0.999033	-0.043833	-0.003555	-0.043733	0.998744	-0.024447	0.004622	-0.024268	-0.999695
4	677887439													0.062366	-0.248597	-9.651503	-0.999028	-0.043934	-0.003684	-0.043830	0.998735	-0.024652	0.004763	-0.024466	-0.999689
5	677895772													0.054505	-0.235235	-9.648899	-0.999026	-0.043970	-0.003565	-0.043870	0.998734	-0.024595	0.004642	-0.024414	-0.999691
6	677904105													0.047109	-0.230880	-9.660108	-0.999030	-0.043894	-0.003642	-0.043791	0.998732	-0.024841	0.004728	-0.024658	-0.999685
7	677912438													0.048403	-0.240464	-9.638349	-0.999029	-0.043917	-0.003523	-0.043817	0.998732	-0.024783	0.004607	-0.024605	-0.999687
8	677920771													0.045170	-0.261329	-9.676474	-0.999023	-0.044049	-0.003486	-0.043949	0.998725	-0.024842	0.004576	-0.024665	-0.999685
9	677929104													0.072437	-0.239277	-9.672582	-0.999022	-0.044084	-0.003366	-0.043988	0.998725	-0.024779	0.004454	-0.024607	-0.999687
10	677937437													0.060706	-0.258876	-9.644386	-0.999020	-0.044129	-0.003278	-0.044035	0.998721	-0.024827	0.004369	-0.024658	-0.999686
11	677945770													0.040028	-0.246766	-9.655751	-0.999020	-0.044155	-0.003148	-0.044064	0.998721	-0.024782	0.004238	-0.024619	-0.999688
12	677954103													0.038167	-0.247481	-9.676159	-0.999026	-0.044017	-0.003128	-0.043926	0.998726	-0.024836	0.004218	-0.024674	-0.999687
13	677962436													0.051751	-0.253425	-9.668533	-0.999025	-0.044046	-0.003019	-0.043958	0.998726	-0.024762	0.004106	-0.024605	-0.999689
14	677970769													0.047130	-0.246902	-9.657661	-0.999028	-0.043985	-0.002943	-0.043899	0.998728	-0.024787	0.004030	-0.024634	-0.999688
15	677979102													0.043611	-0.257767	-9.659335	-0.999026	-0.044029	-0.002815	-0.043946	0.998727	-0.024744	0.003901	-0.024597	-0.999690
16	677987435													0.043539	-0.244155	-9.658641	-0.999021	-0.044157	-0.002734	-0.044076	0.998721	-0.024792	0.003825	-0.024647	-0.999689
17	677995768													0.047438	-0.229292	-9.675858	-0.999020	-0.044182	-0.002615	-0.044104	0.998720	-0.024749	0.003705	-0.024609	-0.999690
18	678004101													0.062208	-0.259748	-9.669792	-0.999016	-0.044281	-0.002526	-0.044205	0.998715	-0.024792	0.003621	-0.024656	-0.999689
19	678012434													0.061207	-0.257009	-9.654364	-0.999015	-0.044308	-0.002404	-0.044235	0.998715	-0.024740	0.003497	-0.024609	-0.999691
20	678020767													0.043039	-0.246294	-9.670143	-0.999011	-0.044403	-0.002343	-0.044331	0.998710	-0.024759	0.003439	-0.024631	-0.999691
21	678029100													0.047395	-0.256014	-9.660429	-0.999010	-0.044438	-0.002224	-0.044369	0.998710	-0.024689	0.003319	-0.024566	-0.999693
22	678037433													0.062995	-0.265449	-9.670472	-0.999009	-0.044448	-0.002171	-0.044381	0.998709	-0.024694	0.003266	-0.024573	-0.999693
23	678045766													0.052001	-0.247045	-9.672503	-0.999008	-0.044488	-0.002051	-0.044424	0.998709	-0.024630	0.003144	-0.024515	-0.999695
24	678054099													0.044426	-0.262795	-9.650752	-0.999006	-0.044526	-0.002016	-0.044463	0.998707	-0.024642	0.003110	-0.024528	-0.999694
25	678062432													0.041029	-0.226867	-9.638599	-0.999005	-0.044558	-0.001886	-0.044498	0.998707	-0.024576	0.002978	-0.024467	-0.999696
26	678070765													0.063067	-0.243697	-9.658176	-0.999004	-0.044590	-0.001832	-0.044532	0.998705	-0.024593	0.002927	-0.024487	-0.999696
27	678079098													0.058088	-0.235858	-9.658477	-0.999002	-0.044628	-0.001700	-0.044573	0.998705	-0.024541	0.002793	-0.024440	-0.999697
28	678087431													0.053274	-0.246508	-9.665472	-0.999002	-0.044638	-0.001645	-0.044584	0.998704	-0.024539	0.002739	-0.024442	-0.999698
29	678095764													0.056465	-0.250729	-9.638206	-0.999001	-0.044665	-0.001520	-0.044615	0.998704	-0.024487	0.002612	-0.024394	-0.999699
30	678104097													0.063145	-0.250671	-9.651224	-0.998993	-0.044837	-0.001465	-0.044788	0.998696	-0.024485	0.002561	-0.024395	-0.999699
31	678112430													0.055621	-0.241952	-9.654643	-0.998992	-0.044879	-0.001328	-0.044833	0.998696	-0.024419	0.002422	-0.024335	-0.999701
32	678120763													0.059969	-0.244577	-9.663491	-0.998990	-0.044917	-0.001289	-0.044872	0.998695	-0.024399	0.002383	-0.024316	-0.999701
33	678129096													0.045528	-0.248497	-9.663970	-0.998989	-0.044948	-0.001167	-0.044906	0.998695	-0.024334	0.002259	-0.024257	-0.999703
34	678137429													0.053954	-0.246465	-9.665987	-0.998986	-0.045017	-0.001130	-0.044976	0.998692	-0.024329	0.002224	-0.024254	-0.999703
35	678145762													0.055041	-0.244770	-9.656746	-0.998985	-0.045044	-0.001007	-0.045006	0.998692	-0.024263	0.002098	-0.024193	-0.999705
36	678154095													0.045814	-0.254269	-9.643713	-0.998993	-0.044866	-0.000967	-0.044830	0.998701	-0.024229	0.002052	-0.024161	-0.999706
37	678162428													0.046730	-0.238419	-9.673383	-0.998992	-0.044888	-0.000841	-0.044855	0.998701	-0.024158	0.001924	-0.024096	-0.999708
38	678170761													0.048732	-0.233068	-9.666116	-0.998986	-0.045020	-0.000786	-0.044988	0.998696	-0.024130	0.001872	-0.024070	-0.999709
39	678179094													0.055570	-0.229899	-9.660165	-0.998984	-0.045052	-0.000661	-0.045023	0.998696	-0.024064	0.001744	-0.024010	-0.999710
40	678187427													0.071199	-0.236787	-9.658763	-0.998983	-0.045081	-0.000619	-0.045053	0.998695	-0.024046	0.001703	-0.023994	-0.999711
41	678195760													0.050149	-0.238297	-9.665036	-0.998982	-0.045104	-0.000501	-0.045079	0.998695	-0.023990	0.001582	-0.023943	-0.999712
42	678204093													0.053210	-0.247639	-9.660644	-0.998979	-0.045183	-0.000451	-0.045159	0.998692	-0.023961	0.001533	-0.023916	-0.999713
43	678212426													0.056143	-0.228991	-9.656689	-0.998978	-0.045201	-0.000322	-0.045180	0.998693	-0.023911	0.001403	-0.023872	-0.999714
44	678220759													0.046029	-0.252131	-9.678119	-0.998981	-0.045130	-0.000293	-0.045110	0.998696	-0.023885	0.001371	-0.023847	-0.999715
45	678229092													0.061007	-0.259605	-9.655787	-0.998980	-0.045152	-0.000166	-0.045135	0.998697	-0.023814	0.001241	-0.023782	-0.999716
46	678237425													0.058603	-0.228676	-9.653656	-0.998983	-0.045090	-0.000117	-0.045074	0.998700	-0.023788	0.001190	-0.023759	-0.999717
47	678245758													0.034691	-0.246480	-9.650659	-0.998982	-0.045114	0.000016	-0.045101	0.998701	-0.023725	0.001054	-0.023702	-0.999719
48	678254091													0.070076	-0.244534	-9.659349	-0.998979	-0.045181	0.000056	-0.045170	0.998698	-0.023709	0.001015	-0.023687	-0.999719
49	678262424													0.066757	-0.241931	-9.667875	-0.998977	-0.045217	0.000168	-0.045209	0.998698	-0.023627	0.000901	-0.023611	-0.999721
50	678270757													0.030772	-0.248733	-9.674520	-0.998970	-0.045375	0.000228	-0.045368	0.998692	-0.023601	0.000844	-0.023587	-0.999721
51	678279090													0.039219	-0.236108	-9.662819	-0.998969	-0.045406	0.000336	-0.045401	0.998691	-0.023541	0.000733	-0.023532	-0.999723
52	678287423													0.072859	-0.237331	-9.635308	-0.998964	-0.045512	0.000382	-0.045509	0.998687	-0.023517	0.000689	-0.023510	-0.999723
53	678295756													0.061543	-0.249842	-9.655880	-0.998963	-0.045524	0.000489	-0.045523	0.998687	-0.023472	0.000581	-0.023470	-0.999724
54	678304089													0.058002	-0.253840	-9.677882	-0.998963	-0.045532	0.000517	-0.045532	0.998688	-0.023439	0.000551	-0.023438	-0.999725
55	678312422													0.050420	-0.249706	-9.658834	-0.998961	-0.045559	0.000647	-0.045562	0.998688	-0.023391	0.000419	-0.023396	-0.999726
56	678320755													0.066901	-0.256938	-9.653892	-0.998954	-0.045723	0.000695	-0.045727	0.998680	-0.023375	0.000375	-0.023383	-0.999727
57	678329088													0.057924	-0.274061	-9.665837	-0.998952	-0.045756	0.000817	-0.045762	0.998680	-0.023309	0.000250	-0.023322	-0.999728
58	678337421													0.072401	-0.260063	-9.657404	-0.998949	-0.045817	0.000846	-0.045825	0.998678	-0.023276	0.000222	-0.023290	-0.999729
59	678345754													0.042917	-0.255177	-9.651817	-0.998948	-0.045849	0.000978	-0.045859	0.998678	-0.023201	0.000087	-0.023222	-0.999730
60	678354087													0.047967	-0.246101	-9.662118	-0.998930	-0.046241	0.001016	-0.046252	0.998661	-0.023183	0.000057	-0.023205	-0.999731
61	678362420													0.040349	-0.253489	-9.670100	-0.998928	-0.046284	0.001144	-0.046298	0.998660	-0.023115	-0.000073	-0.023143	-0.999732
62	678370753													0.052087	-0.237768	-9.651488	-0.998920	-0.046437	0.001189	-0.046453	0.998654	-0.023084	-0.000116	-0.023114	-0.999733
63	678379086													0.060649	-0.238676	-9.670708	-0.998919	-0.046466	0.001305	-0.046484	0.998654	-0.023024	-0.000233	-0.023060	-0.999734
64	678387419													0.051808	-0.246466	-9.659528	-0.998913	-0.046595	0.001343	-0.046613	0.998648	-0.023003	-0.000269	-0.023041	-0.999734
65	678395752													0.051329	-0.232596	-9.660629	-0.998912	-0.046622	0.001467	-0.046644	0.998648	-0.022941	-0.000395	-0.022985	-0.999736
66	678404085													0.037352	-0.248833	-9.661860	-0.998915	-0.046551	0.001496	-0.046573	0.998652	-0.022913	-0.000428	-0.022958	-0.999736
67	678412418													0.054970	-0.252410	-9.658878	-0.998913	-0.046579	0.001629	-0.046604	0.998652	-0.022863	-0.000562	-0.022914	-0.999737
68	678420751													0.049054	-0.239649	-9.647397	-0.998907	-0.046715	0.001669	-0.046741	0.998646	-0.022850	-0.000599	-0.022903	-0.999738
69	678429084													0.054869	-0.239391	-9.663970	-0.998905	-0.046744	0.001801	-0.046773	0.998646	-0.022785	-0.000734	-0.022844	-0.999739
70	678437417													0.042474	-0.261844	-9.656474	-0.998911	-0.046624	0.001847	-0.046654	0.998652	-0.022755	-0.000783	-0.022816	-0.999739
71	678445750													0.045456	-0.242753	-9.644994	-0.998909	-0.046654	0.001964	-0.046687	0.998652	-0.022693	-0.000903	-0.022760	-0.999741
72	678454083													0.054240	-0.258132	-9.670650	-0.998908	-0.046685	0.002019	-0.046719	0.998651	-0.022671	-0.000958	-0.022740	-0.999741
73	678462416													0.061543	-0.252538	-9.651488	-0.998905	-0.046728	0.002160	-0.046765	0.998650	-0.022622	-0.001100	-0.022698	-0.999742
74	678470749													0.041479	-0.262502	-9.654693	-0.998897	-0.046900	0.002207	-0.046938	0.998642	-0.022589	-0.001145	-0.022668	-0.999742
75	678479082													0.052330	-0.261271	-9.653613	-0.998896	-0.046914	0.002344	-0.046955	0.998643	-0.022532	-0.001284	-0.022617	-0.999743
76	678487415													0.038811	-0.252767	-9.670701	-0.998893	-0.046984	0.002388	-0.047025	0.998640	-0.022498	-0.001327	-0.022585	-0.999744
77	678495748													0.056672	-0.243118	-9.680357	-0.998891	-0.047023	0.002517	-0.047068	0.998640	-0.022436	-0.001459	-0.022529	-0.999745
78	678504081													0.055721	-0.242353	-9.668834	-0.998892	-0.046990	0.002551	-0.047035	0.998641	-0.022427	-0.001494	-0.022522	-0.999745
79	678512414													0.061908	-0.238791	-9.658884	-0.998890	-0.047028	0.002671	-0.047076	0.998641	-0.022373	-0.001615	-0.022474	-0.999746
80	678520747													0.045113	-0.243848	-9.658806	-0.998894	-0.046947	0.002695	-0.046996	0.998645	-0.022364	-0.001642	-0.022466	-0.999746
81	678529080													0.045456	-0.232775	-9.667804	-0.998891	-0.046991	0.002821	-0.047042	0.998644	-0.022293	-0.001769	-0.022401	-0.999748
82	678537413													0.062466	-0.229556	-9.654907	-0.998897	-0.046873	0.002861	-0.046925	0.998650	-0.022282	-0.001813	-0.022391	-0.999748
83	678545746													0.035421	-0.234628	-9.661781	-0.998895	-0.046902	0.002975	-0.046957	0.998650	-0.022230	-0.001929	-0.022345	-0.999748
84	678554079													0.048096	-0.253497	-9.682897	-0.998890	-0.047012	0.003033	-0.047068	0.998645	-0.022201	-0.001985	-0.022319	-0.999749
85	678562412													0.038854	-0.246816	-9.665272	-0.998888	-0.047039	0.003177	-0.047098	0.998645	-0.022144	-0.002131	-0.022269	-0.999750
86	678570745													0.052059	-0.246645	-9.661080	-0.998876	-0.047286	0.003218	-0.047346	0.998633	-0.022141	-0.002167	-0.022268	-0.999750
87	678579078													0.062330	-0.238240	-9.674571	-0.998874	-0.047324	0.003342	-0.047387	0.998633	-0.022075	-0.002293	-0.022209	-0.999751
88	678587411													0.057630	-0.239527	-9.658426	-0.998861	-0.047599	0.003389	-0.047662	0.998620	-0.022061	-0.002334	-0.022197	-0.999751
89	678595744													0.050456	-0.246680	-9.657089	-0.998859	-0.047624	0.003505	-0.047690	0.998620	-0.022001	-0.002452	-0.022143	-0.999752
90	678604077													0.064111	-0.250535	-9.653133	-0.998858	-0.047652	0.003540	-0.047718	0.998619	-0.021975	-0.002488	-0.022119	-0.999752
91	678612410													0.055864	-0.229807	-9.663334	-0.998855	-0.047690	0.003661	-0.047759	0.998619	-0.021907	-0.002611	-0.022057	-0.999753
92	678620743													0.055528	-0.226473	-9.638592	-0.998856	-0.047684	0.003692	-0.047754	0.998619	-0.021900	-0.002642	-0.022051	-0.999753
93	678629076													0.062466	-0.233891	-9.676609	-0.998854	-0.047711	0.003822	-0.047783	0.998619	-0.021848	-0.002775	-0.022005	-0.999754
94	678637409													0.032459	-0.239069	-9.671402	-0.998851	-0.047776	0.003876	-0.047849	0.998616	-0.021827	-0.002828	-0.021987	-0.999754
95	678645742													0.043983	-0.248404	-9.672954	-0.998848	-0.047816	0.004003	-0.047893	0.998615	-0.021778	-0.002956	-0.021944	-0.999755
96	678654075													0.042194	-0.236101	-9.637948	-0.998842	-0.047939	0.004031	-0.048015	0.998610	-0.021757	-0.002983	-0.021925	-0.999755
97	678662408													0.060484	-0.248325	-9.641253	-0.998840	-0.047976	0.004155	-0.048055	0.998609	-0.021708	-0.003108	-0.021882	-0.999756
98	678670741													0.043546	-0.243497	-9.642526	-0.998830	-0.048178	0.004182	-0.048258	0.998599	-0.021695	-0.003131	-0.021872	-0.999756
99	678679074													0.048618	-0.252982	-9.661287	-0.998828	-0.048213	0.004311	-0.048295	0.998599	-0.021645	-0.003262	-0.021828	-0.999756
100	678687407													0.044562	-0.246208	-9.671351	-0.998818	-0.048409	0.004365	-0.048492	0.998589	-0.021625	-0.003312	-0.021811	-0.999757
101	678695740													0.055392	-0.244713	-9.662725	-0.998815	-0.048458	0.004475	-0.048543	0.998588	-0.021563	-0.003424	-0.021755	-0.999757
102	678704073													0.052352	-0.248289	-9.675401	-0.998811	-0.048547	0.004503	-0.048633	0.998584	-0.021540	-0.003451	-0.021733	-0.999758
103	678712406													0.067187	-0.243454	-9.650566	-0.998809	-0.048578	0.004627	-0.048666	0.998584	-0.021465	-0.003578	-0.021665	-0.999759
104	678720739													0.044348	-0.252217	-9.658634	-0.998799	-0.048778	0.004654	-0.048867	0.998575	-0.021465	-0.003601	-0.021666	-0.999759
105	678729072													0.057130	-0.243526	-9.648177	-0.998797	-0.048809	0.004785	-0.048900	0.998574	-0.021406	-0.003733	-0.021615	-0.999759
106	678737405													0.061944	-0.244069	-9.651360	-0.998799	-0.048766	0.004805	-0.048858	0.998577	-0.021395	-0.003755	-0.021604	-0.999760
107	678745738													0.069647	-0.240507	-9.666352	-0.998796	-0.048810	0.004915	-0.048904	0.998575	-0.021352	-0.003866	-0.021566	-0.999760
108	678754071													0.064969	-0.241316	-9.674685	-0.998792	-0.048878	0.004946	-0.048973	0.998572	-0.021343	-0.003896	-0.021559	-0.999760
109	678762404													0.039491	-0.256286	-9.667303	-0.998790	-0.048919	0.005051	-0.049016	0.998571	-0.021290	-0.004003	-0.021512	-0.999761
110	678770737													0.042380	-0.242860	-9.686237	-0.998781	-0.049103	0.005071	-0.049201	0.998562	-0.021269	-0.004019	-0.021493	-0.999761
111	678779070													0.059597	-0.253912	-9.641990	-0.998778	-0.049139	0.005190	-0.049239	0.998562	-0.021223	-0.004140	-0.021453	-0.999761
112	678787403													0.056715	-0.237860	-9.655622	-0.998775	-0.049198	0.005221	-0.049298	0.998558	-0.021234	-0.004169	-0.021465	-0.999761
113	678795736													0.051636	-0.261816	-9.649943	-0.998773	-0.049236	0.005363	-0.049339	0.998558	-0.021160	-0.004314	-0.021399	-0.999762
114	678804069													0.058653	-0.244420	-9.673597	-0.998775	-0.049195	0.005383	-0.049298	0.998560	-0.021146	-0.004335	-0.021386	-0.999762
115	678812402													0.067745	-0.238476	-9.671845	-0.998772	-0.049244	0.005496	-0.049349	0.998559	-0.021094	-0.004449	-0.021339	-0.999762
116	678820735													0.048947	-0.243812	-9.656131	-0.998777	-0.049133	0.005517	-0.049239	0.998564	-0.021086	-0.004474	-0.021332	-0.999762
117	678829068													0.057216	-0.234113	-9.663434	-0.998774	-0.049175	0.005651	-0.049284	0.998563	-0.021036	-0.004609	-0.021289	-0.999763
118	678837401													0.067723	-0.248411	-9.653613	-0.998770	-0.049253	0.005676	-0.049362	0.998560	-0.021029	-0.004632	-0.021283	-0.999763
119	678845734													0.063525	-0.240779	-9.650352	-0.998768	-0.049286	0.005791	-0.049398	0.998559	-0.020985	-0.004749	-0.021245	-0.999763
120	678854067													0.055656	-0.226223	-9.657161	-0.998761	-0.049413	0.005824	-0.049525	0.998552	-0.020982	-0.004779	-0.021244	-0.999763
121	678862400													0.063210	-0.238504	-9.669163	-0.998759	-0.049443	0.005950	-0.049557	0.998552	-0.020935	-0.004907	-0.021204	-0.999763
122	678870733													0.051894	-0.252216	-9.672753	-0.998749	-0.049653	0.005966	-0.049768	0.998542	-0.020921	-0.004918	-0.021192	-0.999763
123	678879066													0.056887	-0.244670	-9.673662	-0.998746	-0.049683	0.006099	-0.049800	0.998541	-0.020871	-0.005053	-0.021148	-0.999764
124	678887399													0.055799	-0.246594	-9.673562	-0.998731	-0.049993	0.006112	-0.050110	0.998526	-0.020864	-0.005060	-0.021144	-0.999764
125	678895732													0.054290	-0.247567	-9.661939	-0.998728	-0.050035	0.006236	-0.050155	0.998525	-0.020799	-0.005187	-0.021086	-0.999764
126	678904065													0.056043	-0.259806	-9.649821	-0.998725	-0.050096	0.006248	-0.050216	0.998522	-0.020792	-0.005197	-0.021079	-0.999764
127	678912398													0.034563	-0.253268	-9.655537	-0.998722	-0.050132	0.006374	-0.050254	0.998521	-0.020729	-0.005326	-0.021023	-0.999765
128	678920731													0.057616	-0.238232	-9.670035	-0.998729	-0.050005	0.006382	-0.050127	0.998528	-0.020722	-0.005336	-0.021015	-0.999765
129	678929064													0.053103	-0.237160	-9.680243	-0.998726	-0.050035	0.006518	-0.050160	0.998527	-0.020666	-0.005474	-0.020967	-0.999765
130	678937397													0.048847	-0.236036	-9.650895	-0.998722	-0.050113	0.006539	-0.050239	0.998524	-0.020645	-0.005495	-0.020947	-0.999765
131	678945730													0.068431	-0.228984	-9.657390	-0.998720	-0.050148	0.006665	-0.050275	0.998523	-0.020611	-0.005621	-0.020919	-0.999765
132	678954063													0.056236	-0.243683	-9.647561	-0.998707	-0.050397	0.006683	-0.050525	0.998510	-0.020606	-0.005635	-0.020917	-0.999765
133	678962396													0.042595	-0.233426	-9.668276	-0.998704	-0.050435	0.006810	-0.050565	0.998509	-0.020554	-0.005763	-0.020872	-0.999766
134	678970729													0.040979	-0.247982	-9.649764	-0.998695	-0.050611	0.006825	-0.050741	0.998501	-0.020539	-0.005775	-0.020859	-0.999766
135	678979062													0.059347	-0.245171	-9.669377	-0.998692	-0.050651	0.006948	-0.050784	0.998499	-0.020491	-0.005899	-0.020817	-0.999766
136	678987395													0.044204	-0.232660	-9.661259	-0.998686	-0.050776	0.006950	-0.050909	0.998493	-0.020483	-0.005899	-0.020810	-0.999766
137	678995728													0.046586	-0.235958	-9.662039	-0.998683	-0.050814	0.007086	-0.050949	0.998492	-0.020437	-0.006037	-0.020772	-0.999766
138	679004061													0.058253	-0.237346	-9.661324	-0.998676	-0.050945	0.007102	-0.051081	0.998485	-0.020440	-0.006050	-0.020776	-0.999766
139	679012394													0.054547	-0.247896	-9.657189	-0.998673	-0.050988	0.007219	-0.051126	0.998484	-0.020380	-0.006169	-0.020722	-0.999766
140	679020727													0.054011	-0.259062	-9.678440	-0.998671	-0.051035	0.007224	-0.051173	0.998482	-0.020385	-0.006173	-0.020728	-0.999766
141	679029060													0.053489	-0.258733	-9.634879	-0.998668	-0.051080	0.007338	-0.051220	0.998480	-0.020330	-0.006288	-0.020679	-0.999766
142	679037393													0.058875	-0.258346	-9.653241	-0.998659	-0.051241	0.007339	-0.051380	0.998472	-0.020338	-0.006286	-0.020688	-0.999766
143	679045726													0.058746	-0.237017	-9.657840	-0.998657	-0.051267	0.007462	-0.051409	0.998472	-0.020282	-0.006410	-0.020638	-0.999766
144	679054059													0.059690	-0.242274	-9.667847	-0.998656	-0.051279	0.007477	-0.051421	0.998471	-0.020275	-0.006426	-0.020632	-0.999766
145	679062392													0.067823	-0.239420	-9.656595	-0.998654	-0.051312	0.007598	-0.051457	0.998471	-0.020209	-0.006549	-0.020573	-0.999767
146	679070725													0.060928	-0.226709	-9.656202	-0.998652	-0.051346	0.007597	-0.051490	0.998469	-0.020207	-0.006547	-0.020571	-0.999767
147	679079058													0.053389	-0.228154	-9.627977	-0.998650	-0.051378	0.007708	-0.051524	0.998468	-0.020172	-0.006660	-0.020541	-0.999767
148	679087391													0.045442	-0.231051	-9.660172	-0.998642	-0.051531	0.007710	-0.051677	0.998460	-0.020155	-0.006659	-0.020526	-0.999767
149	679095724													0.051751	-0.235000	-9.644979	-0.998639	-0.051569	0.007835	-0.051717	0.998460	-0.020091	-0.006787	-0.020468	-0.999767
150	679104057													0.056686	-0.243183	-9.642905	-0.998644	-0.051456	0.007838	-0.051605	0.998465	-0.020093	-0.006792	-0.020471	-0.999767
151	679112390													0.051142	-0.258175	-9.661201	-0.998642	-0.051496	0.007942	-0.051646	0.998464	-0.020062	-0.006896	-0.020445	-0.999767
152	679120723													0.053811	-0.233826	-9.660686	-0.998637	-0.051586	0.007944	-0.051737	0.998459	-0.020058	-0.006897	-0.020442	-0.999767
153	679129056													0.050435	-0.264154	-9.653791	-0.998634	-0.051635	0.008055	-0.051788	0.998458	-0.020008	-0.007010	-0.020398	-0.999767
154	679137389													0.051465	-0.255728	-9.632898	-0.998637	-0.051574	0.008051	-0.051727	0.998461	-0.020008	-0.007007	-0.020398	-0.999767
155	679145722													0.069776	-0.245299	-9.657783	-0.998634	-0.051609	0.008163	-0.051763	0.998460	-0.019957	-0.007120	-0.020352	-0.999768
156	679154055													0.043303	-0.259713	-9.648127	-0.998622	-0.051833	0.008153	-0.051987	0.998448	-0.019957	-0.007106	-0.020353	-0.999768
157	679162388													0.054876	-0.243747	-9.661595	-0.998620	-0.051858	0.008269	-0.052014	0.998448	-0.019896	-0.007225	-0.020299	-0.999768
158	679170721													0.042159	-0.235815	-9.682660	-0.998610	-0.052049	0.008271	-0.052205	0.998438	-0.019891	-0.007223	-0.020296	-0.999768
159	679179054													0.051386	-0.228312	-9.652526	-0.998607	-0.052084	0.008393	-0.052242	0.998437	-0.019852	-0.007346	-0.020263	-0.999768
160	679187387													0.055828	-0.231137	-9.661381	-0.998612	-0.051990	0.008399	-0.052148	0.998442	-0.019839	-0.007354	-0.020249	-0.999768
161	679195720													0.053847	-0.231702	-9.681787	-0.998609	-0.052029	0.008515	-0.052188	0.998441	-0.019783	-0.007472	-0.020199	-0.999768
162	679204053													0.072201	-0.224299	-9.655830	-0.998609	-0.052042	0.008516	-0.052202	0.998441	-0.019766	-0.007474	-0.020183	-0.999768
163	679212386													0.065484	-0.240686	-9.675801	-0.998606	-0.052074	0.008630	-0.052236	0.998440	-0.019699	-0.007591	-0.020122	-0.999769
164	679220719													0.067129	-0.236258	-9.653384	-0.998592	-0.052339	0.008636	-0.052501	0.998427	-0.019690	-0.007592	-0.020116	-0.999769
165	679229052													0.056021	-0.255156	-9.678047	-0.998589	-0.052380	0.008759	-0.052543	0.998425	-0.019640	-0.007716	-0.020073	-0.999769
166	679237385													0.044727	-0.235722	-9.659222	-0.998589	-0.052370	0.008757	-0.052533	0.998426	-0.019644	-0.007714	-0.020076	-0.999769
167	679245718													0.051822	-0.249277	-9.663598	-0.998586	-0.052405	0.008876	-0.052571	0.998425	-0.019604	-0.007834	-0.020043	-0.999768
168	679254051													0.061858	-0.259448	-9.655293	-0.998574	-0.052648	0.008877	-0.052814	0.998412	-0.019604	-0.007831	-0.020045	-0.999768
169	679262384													0.062902	-0.259905	-9.649972	-0.998571	-0.052683	0.008999	-0.052850	0.998411	-0.019544	-0.007955	-0.019992	-0.999769
170	679270717													0.056700	-0.269433	-9.648942	-0.998574	-0.052627	0.008998	-0.052795	0.998414	-0.019547	-0.007955	-0.019995	-0.999768
171	679279050													0.058246	-0.267559	-9.668204	-0.998570	-0.052678	0.009131	-0.052848	0.998412	-0.019497	-0.008089	-0.019952	-0.999768
172	679287383													0.053553	-0.255056	-9.651396	-0.998567	-0.052728	0.009136	-0.052898	0.998409	-0.019502	-0.008093	-0.019957	-0.999768
173	679295716													0.059404	-0.248583	-9.662082	-0.998564	-0.052763	0.009248	-0.052935	0.998409	-0.019437	-0.008208	-0.019899	-0.999768
174	679304049													0.043146	-0.251265	-9.686544	-0.998554	-0.052948	0.009250	-0.053120	0.998399	-0.019452	-0.008205	-0.019916	-0.999768
175	679312382													0.049676	-0.234113	-9.643950	-0.998551	-0.052986	0.009353	-0.053159	0.998398	-0.019398	-0.008311	-0.019867	-0.999768
176	679320715													0.042917	-0.223727	-9.647454	-0.998553	-0.052960	0.009357	-0.053134	0.998399	-0.019409	-0.008314	-0.019878	-0.999768
177	679329048													0.058002	-0.215794	-9.633928	-0.998549	-0.053001	0.009478	-0.053176	0.998398	-0.019347	-0.008438	-0.019823	-0.999768
178	679337381													0.050878	-0.244734	-9.665723	-0.998532	-0.053337	0.009467	-0.053512	0.998380	-0.019345	-0.008420	-0.019823	-0.999768
179	679345714													0.033726	-0.241680	-9.665086	-0.998528	-0.053381	0.009575	-0.053558	0.998378	-0.019292	-0.008530	-0.019776	-0.999768
180	679354047													0.054827	-0.239427	-9.674077	-0.998532	-0.053308	0.009552	-0.053484	0.998382	-0.019294	-0.008508	-0.019776	-0.999768
181	679362380													0.053102	-0.242124	-9.660580	-0.998529	-0.053352	0.009659	-0.053530	0.998381	-0.019246	-0.008617	-0.019735	-0.999768
182	679370713													0.053181	-0.257767	-9.650030	-0.998530	-0.053337	0.009644	-0.053515	0.998382	-0.019239	-0.008602	-0.019726	-0.999768
183	679379046													0.056021	-0.257409	-9.654564	-0.998527	-0.053378	0.009760	-0.053557	0.998381	-0.019177	-0.008721	-0.019672	-0.999768
184	679387379													0.064568	-0.257173	-9.652969	-0.998526	-0.053382	0.009760	-0.053562	0.998380	-0.019192	-0.008719	-0.019686	-0.999768
185	679395712													0.048661	-0.250893	-9.652540	-0.998524	-0.053415	0.009874	-0.053597	0.998380	-0.019120	-0.008837	-0.019621	-0.999768
186	679404045													0.057995	-0.253304	-9.658841	-0.998524	-0.053417	0.009866	-0.053598	0.998380	-0.019115	-0.008829	-0.019615	-0.999769
187	679412378													0.060434	-0.233111	-9.666123	-0.998521	-0.053448	0.009986	-0.053631	0.998379	-0.019046	-0.008952	-0.019553	-0.999769
188	679420711													0.056879	-0.230500	-9.644414	-0.998517	-0.053527	0.009961	-0.053710	0.998375	-0.019044	-0.008926	-0.019551	-0.999769
189	679429044													0.058088	-0.243411	-9.649135	-0.998513	-0.053576	0.010076	-0.053761	0.998373	-0.018995	-0.009042	-0.019509	-0.999769
190	679437377													0.060320	-0.243497	-9.662969	-0.998510	-0.053631	0.010069	-0.053815	0.998370	-0.018989	-0.009034	-0.019503	-0.999769
191	679445710													0.042416	-0.240678	-9.671652	-0.998506	-0.053684	0.010198	-0.053870	0.998368	-0.018937	-0.009165	-0.019458	-0.999769
192	679454043													0.075019	-0.251737	-9.653992	-0.998507	-0.053657	0.010186	-0.053842	0.998370	-0.018921	-0.009154	-0.019442	-0.999769
193	679462376													0.063009	-0.218791	-9.651396	-0.998505	-0.053683	0.010295	-0.053870	0.998370	-0.018863	-0.009266	-0.019389	-0.999769
194	679470709													0.063138	-0.242231	-9.673368	-0.998506	-0.053676	0.010273	-0.053863	0.998370	-0.018859	-0.009244	-0.019384	-0.999769
195	679479042													0.059705	-0.235035	-9.674113	-0.998502	-0.053716	0.010382	-0.053905	0.998369	-0.018812	-0.009354	-0.019344	-0.999769
196	679487375													0.065685	-0.252610	-9.653799	-0.998503	-0.053715	0.010365	-0.053903	0.998369	-0.018828	-0.009337	-0.019358	-0.999769
197	679495708													0.050606	-0.239992	-9.675916	-0.998499	-0.053768	0.010475	-0.053958	0.998367	-0.018766	-0.009449	-0.019303	-0.999769
198	679504041													0.068560	-0.252989	-9.664084	-0.998504	-0.053668	0.010460	-0.053858	0.998372	-0.018767	-0.009436	-0.019302	-0.999769
199	679512374													0.058904	-0.259240	-9.665809	-0.998501	-0.053709	0.010572	-0.053900	0.998371	-0.018695	-0.009551	-0.019237	-0.999769
200	679520707													0.068088	-0.258575	-9.654915	-0.998500	-0.053728	0.010549	-0.053919	0.998370	-0.018702	-0.009527	-0.019243	-0.999769
201	679529040													0.046143	-0.235894	-9.657833	-0.998497	-0.053767	0.010663	-0.053960	0.998369	-0.018658	-0.009643	-0.019205	-0.999769
202	679537373													0.062173	-0.250113	-9.643678	-0.998500	-0.053710	0.010639	-0.053902	0.998372	-0.018667	-0.009619	-0.019213	-0.999769
203	679545706													0.056565	-0.256165	-9.646388	-0.998497	-0.053735	0.010748	-0.053928	0.998371	-0.018615	-0.009730	-0.019166	-0.999769
204	679554039													0.062337	-0.220308	-9.666996	-0.998486	-0.053944	0.010716	-0.054137	0.998360	-0.018628	-0.009693	-0.019180	-0.999769
205	679562372													0.056579	-0.253440	-9.657654	-0.998484	-0.053977	0.010820	-0.054172	0.998359	-0.018578	-0.009800	-0.019136	-0.999769
206	679570705													0.057022	-0.228089	-9.658512	-0.998477	-0.054108	0.010799	-0.054302	0.998352	-0.018571	-0.009777	-0.019129	-0.999769
207	679579038													0.061572	-0.236108	-9.658205	-0.998473	-0.054160	0.010910	-0.054355	0.998350	-0.018516	-0.009889	-0.019080	-0.999769
208	679587371													0.054941	-0.238898	-9.647268	-0.998472	-0.054168	0.010901	-0.054363	0.998350	-0.018512	-0.009881	-0.019077	-0.999769
209	679595704													0.047609	-0.240507	-9.655050	-0.998469	-0.054204	0.011014	-0.054401	0.998348	-0.018476	-0.009994	-0.019047	-0.999769
210	679604037													0.055070	-0.236230	-9.656775	-0.998463	-0.054317	0.010989	-0.054514	0.998342	-0.018482	-0.009967	-0.019052	-0.999769
211	679612370													0.052366	-0.257138	-9.655236	-0.998460	-0.054357	0.011110	-0.054556	0.998341	-0.018427	-0.010090	-0.019005	-0.999768
212	679620703													0.055649	-0.245264	-9.661244	-0.998458	-0.054403	0.011077	-0.054601	0.998338	-0.018422	-0.010057	-0.018998	-0.999769
213	679629036													0.056915	-0.253254	-9.650644	-0.998453	-0.054452	0.011213	-0.054652	0.998337	-0.018354	-0.010195	-0.018938	-0.999769
214	679637369													0.052473	-0.238619	-9.665987	-0.998455	-0.054435	0.011178	-0.054634	0.998338	-0.018351	-0.010161	-0.018933	-0.999769
215	679645702													0.062866	-0.261629	-9.643255	-0.998452	-0.054469	0.011295	-0.054670	0.998337	-0.018280	-0.010281	-0.018869	-0.999769
216	679654035													0.052809	-0.236601	-9.658541	-0.998454	-0.054437	0.011275	-0.054637	0.998339	-0.018297	-0.010260	-0.018885	-0.999769
217	679662368													0.069375	-0.228683	-9.669986	-0.998450	-0.054477	0.011387	-0.054679	0.998337	-0.018247	-0.010374	-0.018842	-0.999769
218	679670701													0.050864	-0.255192	-9.672267	-0.998448	-0.054522	0.011360	-0.054723	0.998335	-0.018261	-0.010345	-0.018854	-0.999769
219	679679034													0.056858	-0.259999	-9.672167	-0.998445	-0.054561	0.011465	-0.054764	0.998334	-0.018191	-0.010454	-0.018790	-0.999769
220	679687367													0.066271	-0.253089	-9.655373	-0.998445	-0.054559	0.011426	-0.054761	0.998333	-0.018211	-0.010414	-0.018808	-0.999769
221	679695700													0.053632	-0.238290	-9.657204	-0.998442	-0.054598	0.011529	-0.054802	0.998332	-0.018167	-0.010518	-0.018770	-0.999768
222	679704033													0.056815	-0.238569	-9.667489	-0.998442	-0.054592	0.011504	-0.054796	0.998332	-0.018196	-0.010492	-0.018798	-0.999768
223	679712366													0.060399	-0.234184	-9.660694	-0.998439	-0.054627	0.011630	-0.054832	0.998331	-0.018136	-0.010620	-0.018745	-0.999768
224	679720699													0.043239	-0.243290	-9.662547	-0.998439	-0.054642	0.011599	-0.054846	0.998330	-0.018138	-0.010588	-0.018746	-0.999768
225	679729032													0.061214	-0.242317	-9.650094	-0.998436	-0.054675	0.011712	-0.054881	0.998329	-0.018064	-0.010704	-0.018679	-0.999768
226	679737365													0.072709	-0.227911	-9.659957	-0.998434	-0.054712	0.011691	-0.054918	0.998327	-0.018090	-0.010682	-0.018704	-0.999768
227	679745698													0.074826	-0.261422	-9.665895	-0.998430	-0.054758	0.011802	-0.054965	0.998325	-0.018035	-0.010795	-0.018656	-0.999768
228	679754031													0.051429	-0.248976	-9.650029	-0.998433	-0.054713	0.011775	-0.054920	0.998328	-0.018050	-0.010768	-0.018668	-0.999768
229	679762364													0.043267	-0.248318	-9.657461	-0.998430	-0.054746	0.011886	-0.054954	0.998327	-0.017992	-0.010881	-0.018617	-0.999767
230	679770697													0.045957	-0.226366	-9.666645	-0.998426	-0.054812	0.011846	-0.055020	0.998323	-0.018014	-0.010839	-0.018637	-0.999768
231	679779030													0.035421	-0.239863	-9.660851	-0.998423	-0.054856	0.011967	-0.055066	0.998321	-0.017957	-0.010962	-0.018587	-0.999767
232	679787363													0.052252	-0.231058	-9.657225	-0.998425	-0.054821	0.011928	-0.055030	0.998323	-0.017949	-0.010924	-0.018577	-0.999768
233	679795696													0.046372	-0.252595	-9.658684	-0.998422	-0.054852	0.012028	-0.055062	0.998322	-0.017898	-0.011026	-0.018532	-0.999767
234	679804029													0.038683	-0.259248	-9.653313	-0.998424	-0.054820	0.011992	-0.055029	0.998324	-0.017904	-0.010990	-0.018536	-0.999768
235	679812362													0.051536	-0.245221	-9.657855	-0.998421	-0.054853	0.012108	-0.055064	0.998323	-0.017848	-0.011109	-0.018486	-0.999767
236	679820695													0.054176	-0.233598	-9.673182	-0.998558	-0.053521	-0.004230	-0.053396	0.998245	-0.025604	0.005593	-0.025342	-0.999663
237	679829028													0.052752	-0.250357	-9.658527	-0.998556	-0.053555	-0.004112	-0.053434	0.998244	-0.025552	0.005473	-0.025295	-0.999665
238	679837361													0.046057	-0.257624	-9.655365	-0.998577	-0.053167	-0.004113	-0.053046	0.998265	-0.025542	0.005464	-0.025288	-0.999665
239	679845694													0.057058	-0.250142	-9.648434	-0.998577	-0.053176	-0.004106	-0.053054	0.998265	-0.025539	0.005457	-0.025284	-0.999665
240	679854027													0.045599	-0.245793	-9.651088	-0.998598	-0.052766	-0.004115	-0.052645	0.998287	-0.025531	0.005455	-0.025279	-0.999666
241	679862360													0.055449	-0.243540	-9.640308	-0.998598	-0.052764	-0.004126	-0.052642	0.998287	-0.025527	0.005466	-0.025274	-0.999666
242	679870693													0.055098	-0.239427	-9.670315	-0.998599	-0.052762	-0.004138	-0.052640	0.998288	-0.025513	0.005477	-0.025259	-0.999666
243	679879026													0.058854	-0.242803	-9.665787	-0.998598	-0.052769	-0.004150	-0.052646	0.998287	-0.025512	0.005489	-0.025258	-0.999666
244	679887359													0.059533	-0.246738	-9.656703	-0.998598	-0.052770	-0.004150	-0.052648	0.998287	-0.025509	0.005489	-0.025255	-0.999666
245	679895692													0.063603	-0.245686	-9.672875	-0.998597	-0.052787	-0.004151	-0.052664	0.998286	-0.025526	0.005491	-0.025272	-0.999666
246	679904025													0.053983	-0.255793	-9.669063	-0.998597	-0.052789	-0.004166	-0.052666	0.998286	-0.025530	0.005506	-0.025275	-0.999665
247	679912358													0.046064	-0.245858	-9.653384	-0.998597	-0.052781	-0.004165	-0.052658	0.998286	-0.025521	0.005505	-0.025266	-0.999666
248	679920691													0.049848	-0.232725	-9.636804	-0.998598	-0.052770	-0.004165	-0.052647	0.998287	-0.025511	0.005504	-0.025256	-0.999666
249	679929024													0.057115	-0.249341	-9.628113	-0.998598	-0.052762	-0.004164	-0.052639	0.998288	-0.025514	0.005503	-0.025259	-0.999666
250	679937357													0.048089	-0.243933	-9.661567	-0.998598	-0.052762	-0.004158	-0.052639	0.998287	-0.025523	0.005497	-0.025268	-0.999666
251	679945690													0.051479	-0.253768	-9.662926	-0.998598	-0.052763	-0.004156	-0.052640	0.998288	-0.025512	0.005495	-0.025258	-0.999666
252	679954023													0.040113	-0.256215	-9.646996	-0.998599	-0.052761	-0.004146	-0.052639	0.998288	-0.025514	0.005485	-0.025260	-0.999666
253	679962356													0.044913	-0.258990	-9.654099	-0.998598	-0.052766	-0.004137	-0.052643	0.998287	-0.025516	0.005476	-0.025263	-0.999666
254	679970689													0.058432	-0.252438	-9.644071	-0.998599	-0.052751	-0.004137	-0.052629	0.998288	-0.025519	0.005476	-0.025266	-0.999666
255	679979022													0.044641	-0.234220	-9.662497	-0.998599	-0.052755	-0.004126	-0.052634	0.998288	-0.025510	0.005465	-0.025258	-0.999666
256	679987355													0.041766	-0.235679	-9.669492	-0.998599	-0.052758	-0.004109	-0.052637	0.998288	-0.025519	0.005448	-0.025267	-0.999666
257	679995688													0.043082	-0.247960	-9.659127	-0.998599	-0.052753	-0.004117	-0.052631	0.998288	-0.025514	0.005456	-0.025262	-0.999666
258	680004021													0.049347	-0.238347	-9.650859	-0.998600	-0.052739	-0.004115	-0.052618	0.998289	-0.025502	0.005453	-0.025250	-0.999666
259	680012354													0.046801	-0.238011	-9.659728	-0.998600	-0.052740	-0.004123	-0.052618	0.998289	-0.025511	0.005461	-0.025258	-0.999666
260	680020687													0.061228	-0.232038	-9.653691	-0.998600	-0.052738	-0.004135	-0.052615	0.998289	-0.025516	0.005473	-0.025262	-0.999666
261	680029020													0.057559	-0.240693	-9.653184	-0.998599	-0.052747	-0.004150	-0.052625	0.998288	-0.025523	0.005489	-0.025269	-0.999666
262	680037353													0.041644	-0.238433	-9.654736	-0.998599	-0.052752	-0.004140	-0.052630	0.998288	-0.025518	0.005479	-0.025264	-0.999666
263	680045686													0.054669	-0.249126	-9.671838	-0.998600	-0.052740	-0.004137	-0.052618	0.998288	-0.025525	0.005476	-0.025272	-0.999666
264	680054019													0.065091	-0.244434	-9.647847	-0.998599	-0.052747	-0.004136	-0.052625	0.998288	-0.025530	0.005475	-0.025276	-0.999666
265	680062352													0.073724	-0.256801	-9.656323	-0.998600	-0.052737	-0.004143	-0.052614	0.998289	-0.025528	0.005482	-0.025274	-0.999666
266	680070685													0.048768	-0.245929	-9.643878	-0.998600	-0.052734	-0.004142	-0.052611	0.998289	-0.025536	0.005481	-0.025282	-0.999665
267	680079018													0.053396	-0.253997	-9.673834	-0.998600	-0.052727	-0.004138	-0.052605	0.998289	-0.025535	0.005477	-0.025282	-0.999665
268	680087351													0.058217	-0.246408	-9.674786	-0.998600	-0.052735	-0.004137	-0.052613	0.998288	-0.025539	0.005477	-0.025286	-0.999665
269	680095684													0.059662	-0.248318	-9.658277	-0.998600	-0.052725	-0.004136	-0.052603	0.998289	-0.025525	0.005475	-0.025272	-0.999666
270	680104017													0.054140	-0.238926	-9.669757	-0.998601	-0.052722	-0.004141	-0.052600	0.998289	-0.025528	0.005480	-0.025274	-0.999666
271	680112350													0.053625	-0.238655	-9.663999	-0.998601	-0.052716	-0.004139	-0.052594	0.998290	-0.025524	0.005478	-0.025271	-0.999666
272	680120683													0.047731	-0.244227	-9.660923	-0.998601	-0.052710	-0.004143	-0.052588	0.998290	-0.025536	0.005482	-0.025283	-0.999665
273	680129016													0.066171	-0.252781	-9.669806	-0.998601	-0.052715	-0.004142	-0.052592	0.998290	-0.025533	0.005481	-0.025280	-0.999665
274	680137349													0.080155	-0.255700	-9.650845	-0.998600	-0.052726	-0.004134	-0.052604	0.998289	-0.025543	0.005473	-0.025290	-0.999665
275	680145682													0.056043	-0.251823	-9.646524	-0.998600	-0.052736	-0.004149	-0.052614	0.998288	-0.025550	0.005489	-0.025296	-0.999665
276	680154015													0.054920	-0.234728	-9.662504	-0.998599	-0.052748	-0.004151	-0.052626	0.998287	-0.025556	0.005491	-0.025301	-0.999665
277	680162348													0.047903	-0.241988	-9.661101	-0.998600	-0.052735	-0.004151	-0.052612	0.998288	-0.025553	0.005491	-0.025299	-0.999665
278	680170681													0.043654	-0.248275	-9.658469	-0.998600	-0.052727	-0.004150	-0.052605	0.998289	-0.025548	0.005490	-0.025294	-0.999665
279	680179014													0.061050	-0.241580	-9.687231	-0.998601	-0.052723	-0.004148	-0.052601	0.998289	-0.025554	0.005489	-0.025300	-0.999665
280	680187347													0.057616	-0.249477	-9.671652	-0.998601	-0.052712	-0.004154	-0.052589	0.998289	-0.025554	0.005494	-0.025300	-0.999665
281	680195680													0.066543	-0.240364	-9.652761	-0.998601	-0.052709	-0.004166	-0.052586	0.998290	-0.025550	0.005505	-0.025295	-0.999665
282	680204013													0.052981	-0.255428	-9.663255	-0.998601	-0.052712	-0.004160	-0.052589	0.998290	-0.025542	0.005499	-0.025287	-0.999665
283	680212346													0.042674	-0.229685	-9.665243	-0.998601	-0.052712	-0.004163	-0.052589	0.998290	-0.025543	0.005502	-0.025288	-0.999665
284	680220679													0.052059	-0.228605	-9.677089	-0.998601	-0.052706	-0.004154	-0.052583	0.998289	-0.025558	0.005494	-0.025304	-0.999665
285	680229012													0.046658	-0.243525	-9.657533	-0.998602	-0.052702	-0.004159	-0.052580	0.998290	-0.025554	0.005498	-0.025299	-0.999665
286	680237345													0.043883	-0.234706	-9.658377	-0.998602	-0.052699	-0.004163	-0.052576	0.998290	-0.025558	0.005503	-0.025304	-0.999665
287	680245678													0.053346	-0.246344	-9.649993	-0.998602	-0.052701	-0.004166	-0.052577	0.998290	-0.025565	0.005506	-0.025310	-0.999664
288	680254011													0.048704	-0.246794	-9.650773	-0.998601	-0.052710	-0.004148	-0.052587	0.998289	-0.025550	0.005487	-0.025296	-0.999665
289	680262344													0.059991	-0.248597	-9.665186	-0.998601	-0.052713	-0.004154	-0.052590	0.998289	-0.025542	0.005493	-0.025288	-0.999665
290	680270677													0.073166	-0.245428	-9.651417	-0.998601	-0.052710	-0.004142	-0.052587	0.998290	-0.025544	0.005482	-0.025291	-0.999665
291	680279010													0.056980	-0.257102	-9.653577	-0.998601	-0.052709	-0.004145	-0.052587	0.998289	-0.025553	0.005485	-0.025300	-0.999665
292	680287343													0.043783	-0.258447	-9.661667	-0.998601	-0.052714	-0.004141	-0.052591	0.998289	-0.025556	0.005481	-0.025303	-0.999665
293	680295676													0.070699	-0.246229	-9.664270	-0.998601	-0.052716	-0.004139	-0.052593	0.998289	-0.025549	0.005479	-0.025295	-0.999665
294	680304009													0.054777	-0.249320	-9.656631	-0.998601	-0.052711	-0.004146	-0.052589	0.998289	-0.025545	0.005485	-0.025291	-0.999665
295	680312342													0.046308	-0.239120	-9.672997	-0.998602	-0.052696	-0.004148	-0.052573	0.998291	-0.025532	0.005486	-0.025278	-0.999665
296	680320675													0.054698	-0.244963	-9.677346	-0.998602	-0.052701	-0.004154	-0.052579	0.998290	-0.025538	0.005493	-0.025284	-0.999665
297	680329008													0.045556	-0.244756	-9.665586	-0.998602	-0.052699	-0.004160	-0.052577	0.998291	-0.025526	0.005498	-0.025272	-0.999665
298	680337341													0.055241	-0.244148	-9.652955	-0.998602	-0.052696	-0.004158	-0.052573	0.998291	-0.025505	0.005495	-0.025251	-0.999666
299	680345674													0.057716	-0.223427	-9.652761	-0.998602	-0.052686	-0.004154	-0.052564	0.998292	-0.025496	0.005490	-0.025242	-0.999666
300	680354007													0.055613	-0.237138	-9.660451	-0.998603	-0.052675	-0.004167	-0.052552	0.998293	-0.025498	0.005503	-0.025243	-0.999666
301	680362340													0.044999	-0.242875	-9.659922	-0.998603	-0.052682	-0.004169	-0.052559	0.998292	-0.025498	0.005505	-0.025244	-0.999666
302	680370673													0.066800	-0.236144	-9.657676	-0.998603	-0.052669	-0.004165	-0.052547	0.998293	-0.025490	0.005500	-0.025236	-0.999666
303	680379006													0.050013	-0.243554	-9.661359	-0.998603	-0.052673	-0.004162	-0.052550	0.998293	-0.025484	0.005497	-0.025230	-0.999667
304	680387339													0.061500	-0.247789	-9.649414	-0.998603	-0.052672	-0.004161	-0.052549	0.998293	-0.025491	0.005496	-0.025237	-0.999666
305	680395672													0.054533	-0.253704	-9.657411	-0.998603	-0.052672	-0.004156	-0.052550	0.998293	-0.025500	0.005492	-0.025246	-0.999666
306	680404005													0.034191	-0.265256	-9.652790	-0.998604	-0.052655	-0.004152	-0.052532	0.998294	-0.025502	0.005488	-0.025249	-0.999666
307	680412338													0.048253	-0.249262	-9.648176	-0.998605	-0.052646	-0.004143	-0.052524	0.998294	-0.025492	0.005478	-0.025239	-0.999666
308	680420671													0.047545	-0.238419	-9.666538	-0.998605	-0.052640	-0.004142	-0.052518	0.998294	-0.025498	0.005477	-0.025245	-0.999666
309	680429004													0.058582	-0.248540	-9.654721	-0.998605	-0.052637	-0.004130	-0.052516	0.998295	-0.025483	0.005464	-0.025230	-0.999667
310	680437337													0.057673	-0.238168	-9.650352	-0.998605	-0.052645	-0.004137	-0.052523	0.998294	-0.025502	0.005472	-0.025250	-0.999666
311	680445670													0.067902	-0.242281	-9.673977	-0.998605	-0.052637	-0.004140	-0.052515	0.998295	-0.025494	0.005475	-0.025241	-0.999666
312	680454003													0.061972	-0.241087	-9.659221	-0.998605	-0.052645	-0.004139	-0.052523	0.998294	-0.025490	0.005473	-0.025237	-0.999667
313	680462336													0.047459	-0.248933	-9.654035	-0.998604	-0.052652	-0.004140	-0.052530	0.998294	-0.025491	0.005475	-0.025238	-0.999666
314	680470669													0.040499	-0.246716	-9.659785	-0.998639	-0.051994	-0.004172	-0.051871	0.998328	-0.025507	0.005491	-0.025255	-0.999666
315	680479002													0.053432	-0.258375	-9.691959	-0.998639	-0.051987	-0.004162	-0.051864	0.998328	-0.025513	0.005482	-0.025263	-0.999666
316	680487335													0.071127	-0.247624	-9.650695	-0.998669	-0.051412	-0.004168	-0.051289	0.998357	-0.025537	0.005474	-0.025289	-0.999665
317	680495668													0.061321	-0.266343	-9.656624	-0.998669	-0.051415	-0.004176	-0.051292	0.998357	-0.025533	0.005482	-0.025285	-0.999665
318	680504001													0.042087	-0.247310	-9.666073	-0.998691	-0.050982	-0.004184	-0.050860	0.998380	-0.025527	0.005479	-0.025281	-0.999665
319	680512334													0.056615	-0.250993	-9.688927	-0.998690	-0.051001	-0.004190	-0.050878	0.998379	-0.025520	0.005484	-0.025273	-0.999666
320	680520667													0.057552	-0.243733	-9.658648	-0.998704	-0.050715	-0.004209	-0.050592	0.998393	-0.025524	0.005497	-0.025278	-0.999665
321	680529000													0.069082	-0.252917	-9.662010	-0.998704	-0.050711	-0.004217	-0.050588	0.998394	-0.025512	0.005504	-0.025266	-0.999666
322	680537333													0.050979	-0.243912	-9.666502	-0.998717	-0.050463	-0.004230	-0.050339	0.998406	-0.025515	0.005511	-0.025270	-0.999665
323	680545666													0.046930	-0.239534	-9.650180	-0.998716	-0.050473	-0.004238	-0.050349	0.998406	-0.025508	0.005519	-0.025262	-0.999666
324	680553999													0.066443	-0.231437	-9.643513	-0.998731	-0.050177	-0.004250	-0.050053	0.998421	-0.025487	0.005522	-0.025242	-0.999666
325	680562332													0.047280	-0.232933	-9.665236	-0.998731	-0.050186	-0.004255	-0.050061	0.998421	-0.025473	0.005527	-0.025227	-0.999666
326	680570665													0.051651	-0.226495	-9.658563	-0.998742	-0.049955	-0.004241	-0.049832	0.998433	-0.025476	0.005507	-0.025233	-0.999666
327	680578998													0.048890	-0.253325	-9.655336	-0.998742	-0.049961	-0.004232	-0.049837	0.998432	-0.025481	0.005498	-0.025238	-0.999666
328	680587331													0.055442	-0.251830	-9.677825	-0.998752	-0.049759	-0.004234	-0.049635	0.998442	-0.025483	0.005496	-0.025241	-0.999666
329	680595664													0.044384	-0.231631	-9.643935	-0.998752	-0.049758	-0.004232	-0.049634	0.998442	-0.025483	0.005493	-0.025242	-0.999666
330	680603997													0.058696	-0.266336	-9.656703	-0.998758	-0.049639	-0.004246	-0.049516	0.998449	-0.025471	0.005503	-0.025229	-0.999667
331	680612330													0.057008	-0.260814	-9.640952	-0.998758	-0.049643	-0.004251	-0.049519	0.998448	-0.025475	0.005509	-0.025233	-0.999666
332	680620663													0.050049	-0.252667	-9.678583	-0.998766	-0.049480	-0.004254	-0.049357	0.998457	-0.025465	0.005507	-0.025223	-0.999667
333	680628996													0.055806	-0.253218	-9.678262	-0.998766	-0.049477	-0.004251	-0.049353	0.998457	-0.025451	0.005504	-0.025210	-0.999667
334	680637329													0.059648	-0.252567	-9.671724	-0.998774	-0.049315	-0.004258	-0.049191	0.998465	-0.025438	0.005506	-0.025197	-0.999667
335	680645662													0.053975	-0.245957	-9.664392	-0.998774	-0.049311	-0.004252	-0.049188	0.998465	-0.025455	0.005501	-0.025215	-0.999667
336	680653995													0.044584	-0.242667	-9.665680	-0.998779	-0.049212	-0.004268	-0.049088	0.998470	-0.025443	0.005514	-0.025202	-0.999667
337	680662328													0.057666	-0.236187	-9.665008	-0.998779	-0.049209	-0.004263	-0.049085	0.998471	-0.025442	0.005509	-0.025202	-0.999667
338	680670661													0.048503	-0.230944	-9.668183	-0.998787	-0.049056	-0.004266	-0.048932	0.998478	-0.025462	0.005509	-0.025222	-0.999667
339	680678994													0.065256	-0.242439	-9.671131	-0.998787	-0.049053	-0.004267	-0.048929	0.998478	-0.025463	0.005509	-0.025223	-0.999667
340	680687327													0.053310	-0.243111	-9.660580	-0.998792	-0.048954	-0.004261	-0.048830	0.998483	-0.025451	0.005501	-0.025213	-0.999667
341	680695660													0.059490	-0.222675	-9.638685	-0.998792	-0.048945	-0.004261	-0.048821	0.998483	-0.025462	0.005501	-0.025223	-0.999667
342	680703993													0.048454	-0.243261	-9.653813	-0.998796	-0.048872	-0.004266	-0.048748	0.998486	-0.025464	0.005504	-0.025225	-0.999667
343	680712326													0.051343	-0.259169	-9.662840	-0.998796	-0.048865	-0.004263	-0.048741	0.998487	-0.025462	0.005501	-0.025224	-0.999667
344	680720659													0.042094	-0.250814	-9.648834	-0.998803	-0.048731	-0.004262	-0.048608	0.998493	-0.025475	0.005497	-0.025238	-0.999666
345	680728992													0.047173	-0.255521	-9.652283	-0.998803	-0.048727	-0.004272	-0.048603	0.998494	-0.025464	0.005506	-0.025226	-0.999667
346	680737325													0.061607	-0.220908	-9.667826	-0.998806	-0.048665	-0.004269	-0.048541	0.998496	-0.025466	0.005502	-0.025229	-0.999667
347	680745658													0.048511	-0.246609	-9.652361	-0.998806	-0.048670	-0.004268	-0.048546	0.998496	-0.025456	0.005500	-0.025219	-0.999667
348	680753991													0.054541	-0.247632	-9.657811	-0.998809	-0.048611	-0.004262	-0.048487	0.998499	-0.025451	0.005493	-0.025214	-0.999667
349	680762324													0.042710	-0.244248	-9.645258	-0.998809	-0.048608	-0.004275	-0.048484	0.998500	-0.025446	0.005506	-0.025208	-0.999667
350	680770657													0.051643	-0.238533	-9.651116	-0.998810	-0.048580	-0.004262	-0.048456	0.998501	-0.025445	0.005492	-0.025208	-0.999667
351	680778990													0.064297	-0.238404	-9.656345	-0.998811	-0.048571	-0.004257	-0.048448	0.998501	-0.025470	0.005488	-0.025234	-0.999667
352	680787323													0.052852	-0.240264	-9.657318	-0.998813	-0.048522	-0.004261	-0.048398	0.998504	-0.025458	0.005490	-0.025221	-0.999667
353	680795656													0.044734	-0.245400	-9.663091	-0.998813	-0.048527	-0.004258	-0.048404	0.998504	-0.025452	0.005487	-0.025215	-0.999667
354	680803989													0.061615	-0.248132	-9.656245	-0.998815	-0.048489	-0.004259	-0.048366	0.998506	-0.025444	0.005486	-0.025208	-0.999667
355	680812322													0.072923	-0.241001	-9.655150	-0.998815	-0.048491	-0.004252	-0.048367	0.998505	-0.025451	0.005480	-0.025215	-0.999667
356	680820655													0.056078	-0.234670	-9.658191	-0.998818	-0.048423	-0.004252	-0.048299	0.998508	-0.025460	0.005478	-0.025224	-0.999667
357	680828988													0.058803	-0.249684	-9.684176	-0.998818	-0.048415	-0.004260	-0.048292	0.998509	-0.025460	0.005486	-0.025224	-0.999667
358	680837321													0.048940	-0.237195	-9.671702	-0.998821	-0.048358	-0.004273	-0.048234	0.998512	-0.025456	0.005498	-0.025220	-0.999667
359	680845654													0.065177	-0.234921	-9.653098	-0.998821	-0.048356	-0.004279	-0.048232	0.998511	-0.025465	0.005504	-0.025229	-0.999667
360	680853987													0.049233	-0.248948	-9.659099	-0.998824	-0.048296	-0.004294	-0.048172	0.998514	-0.025466	0.005518	-0.025229	-0.999666
361	680862320													0.060670	-0.245493	-9.652454	-0.998824	-0.048297	-0.004292	-0.048173	0.998515	-0.025453	0.005515	-0.025217	-0.999667
362	680870653													0.070370	-0.239856	-9.654786	-0.998827	-0.048238	-0.004278	-0.048114	0.998518	-0.025442	0.005499	-0.025207	-0.999667
363	680878986													0.052995	-0.235536	-9.663499	-0.998827	-0.048234	-0.004272	-0.048110	0.998518	-0.025430	0.005492	-0.025194	-0.999667
364	680887319													0.055356	-0.260678	-9.667125	-0.998830	-0.048180	-0.004269	-0.048056	0.998521	-0.025430	0.005488	-0.025196	-0.999667
365	680895652													0.047459	-0.230064	-9.667675	-0.998830	-0.048176	-0.004282	-0.048052	0.998521	-0.025424	0.005501	-0.025189	-0.999668
366	680903985													0.071364	-0.240522	-9.676173	-0.998831	-0.048160	-0.004268	-0.048036	0.998522	-0.025435	0.005487	-0.025200	-0.999667
367	680912318													0.037381	-0.245657	-9.656388	-0.998830	-0.048162	-0.004265	-0.048038	0.998522	-0.025419	0.005483	-0.025184	-0.999668
368	680920651													0.054211	-0.236602	-9.652855	-0.998833	-0.048119	-0.004264	-0.047995	0.998524	-0.025422	0.005481	-0.025188	-0.999668
369	680928984													0.063532	-0.254412	-9.650373	-0.998833	-0.048116	-0.004271	-0.047992	0.998524	-0.025411	0.005488	-0.025177	-0.999668
370	680937317													0.037531	-0.244720	-9.662261	-0.998834	-0.048096	-0.004273	-0.047972	0.998525	-0.025425	0.005489	-0.025190	-0.999668
371	680945650													0.038611	-0.252438	-9.645873	-0.998833	-0.048109	-0.004270	-0.047986	0.998524	-0.025428	0.005487	-0.025194	-0.999668
372	680953983													0.030020	-0.257667	-9.653405	-0.998834	-0.048097	-0.004255	-0.047973	0.998525	-0.025424	0.005471	-0.025190	-0.999668
373	680962316													0.049569	-0.242810	-9.663598	-0.998834	-0.048090	-0.004256	-0.047967	0.998525	-0.025420	0.005472	-0.025186	-0.999668
374	680970649													0.059132	-0.243504	-9.671824	-0.998838	-0.047999	-0.004250	-0.047876	0.998530	-0.025422	0.005464	-0.025189	-0.999668
375	680978982													0.051264	-0.262402	-9.640373	-0.998839	-0.047991	-0.004252	-0.047868	0.998530	-0.025417	0.005466	-0.025184	-0.999668
376	680987315													0.062881	-0.248540	-9.656102	-0.998842	-0.047920	-0.004247	-0.047798	0.998534	-0.025414	0.005459	-0.025182	-0.999668
377	680995648													0.051436	-0.248790	-9.666495	-0.998842	-0.047930	-0.004265	-0.047807	0.998533	-0.025419	0.005477	-0.025185	-0.999668
378	681003981													0.053925	-0.252066	-9.667282	-0.998842	-0.047928	-0.004266	-0.047804	0.998533	-0.025416	0.005478	-0.025183	-0.999668
379	681012314													0.060248	-0.249219	-9.640459	-0.998841	-0.047933	-0.004268	-0.047810	0.998533	-0.025407	0.005479	-0.025174	-0.999668
380	681020647													0.056422	-0.245994	-9.673469	-0.998846	-0.047842	-0.004282	-0.047719	0.998538	-0.025397	0.005490	-0.025163	-0.999668
381	681028980													0.059862	-0.238540	-9.657061	-0.998846	-0.047847	-0.004277	-0.047723	0.998538	-0.025387	0.005486	-0.025154	-0.999669
382	681037313													0.073524	-0.247910	-9.651574	-0.998845	-0.047852	-0.004277	-0.047728	0.998537	-0.025395	0.005486	-0.025161	-0.999668
383	681045646													0.063124	-0.235436	-9.640866	-0.998846	-0.047844	-0.004282	-0.047720	0.998538	-0.025376	0.005490	-0.025142	-0.999669
384	681053979													0.063639	-0.238197	-9.648756	-0.998846	-0.047827	-0.004285	-0.047703	0.998539	-0.025369	0.005492	-0.025136	-0.999669
385	681062312													0.058575	-0.246544	-9.653534	-0.998846	-0.047828	-0.004292	-0.047704	0.998539	-0.025374	0.005500	-0.025140	-0.999669
386	681070645													0.055992	-0.267938	-9.659456	-0.998848	-0.047797	-0.004302	-0.047673	0.998540	-0.025381	0.005508	-0.025147	-0.999669
387	681078978													0.052159	-0.242925	-9.659364	-0.998848	-0.047795	-0.004296	-0.047671	0.998540	-0.025390	0.005503	-0.025156	-0.999668
388	681087311													0.042309	-0.248955	-9.655251	-0.998850	-0.047757	-0.004313	-0.047633	0.998542	-0.025381	0.005519	-0.025147	-0.999669
389	681095644													0.038497	-0.253411	-9.654471	-0.998850	-0.047750	-0.004305	-0.047626	0.998543	-0.025386	0.005511	-0.025152	-0.999668
390	681103977													0.056522	-0.253225	-9.655408	-0.998852	-0.047703	-0.004301	-0.047579	0.998545	-0.025388	0.005506	-0.025154	-0.999668
391	681112310													0.037474	-0.232196	-9.659184	-0.998853	-0.047689	-0.004305	-0.047565	0.998546	-0.025380	0.005509	-0.025147	-0.999669
392	681120643													0.047216	-0.233805	-9.650452	-0.998854	-0.047657	-0.004322	-0.047533	0.998547	-0.025390	0.005525	-0.025155	-0.999668
393	681128976													0.053410	-0.234971	-9.655902	-0.998854	-0.047660	-0.004325	-0.047535	0.998547	-0.025375	0.005528	-0.025140	-0.999669
394	681137309													0.052080	-0.248304	-9.654263	-0.998854	-0.047673	-0.004333	-0.047548	0.998546	-0.025388	0.005537	-0.025152	-0.999668
395	681145642													0.054533	-0.235886	-9.686587	-0.998853	-0.047681	-0.004335	-0.047556	0.998546	-0.025391	0.005539	-0.025155	-0.999668
396	681153975													0.045049	-0.234320	-9.655745	-0.998854	-0.047659	-0.004345	-0.047534	0.998546	-0.025412	0.005549	-0.025176	-0.999668
397	681162308													0.035485	-0.253039	-9.661631	-0.998854	-0.047656	-0.004340	-0.047531	0.998546	-0.025421	0.005545	-0.025185	-0.999667
398	681170641													0.048389	-0.253940	-9.649929	-0.998857	-0.047604	-0.004342	-0.047479	0.998549	-0.025423	0.005546	-0.025188	-0.999667
399	681178974													0.060155	-0.243340	-9.652590	-0.998857	-0.047600	-0.004341	-0.047475	0.998549	-0.025432	0.005545	-0.025197	-0.999667
400	681187307													0.060864	-0.244620	-9.662333	-0.998859	-0.047561	-0.004341	-0.047436	0.998550	-0.025434	0.005545	-0.025199	-0.999667
401	681195640													0.060320	-0.255128	-9.639979	-0.998859	-0.047569	-0.004334	-0.047444	0.998550	-0.025444	0.005538	-0.025210	-0.999667
402	681203973													0.070713	-0.241673	-9.666802	-0.998860	-0.047532	-0.004341	-0.047407	0.998551	-0.025451	0.005545	-0.025216	-0.999667
403	681212306													0.050885	-0.237202	-9.655859	-0.998861	-0.047526	-0.004334	-0.047401	0.998552	-0.025451	0.005537	-0.025217	-0.999667
404	681220639													0.039770	-0.242467	-9.679770	-0.998861	-0.047519	-0.004316	-0.047394	0.998552	-0.025451	0.005519	-0.025217	-0.999667
405	681228972													0.053274	-0.253268	-9.664879	-0.998861	-0.047516	-0.004316	-0.047391	0.998552	-0.025445	0.005519	-0.025212	-0.999667
406	681237305													0.030578	-0.240178	-9.662339	-0.998863	-0.047480	-0.004326	-0.047355	0.998554	-0.025427	0.005527	-0.025193	-0.999667
407	681245638													0.059805	-0.242338	-9.634057	-0.998863	-0.047477	-0.004329	-0.047352	0.998555	-0.025418	0.005530	-0.025184	-0.999668
408	681253971													0.057731	-0.242124	-9.641138	-0.998866	-0.047412	-0.004332	-0.047287	0.998558	-0.025422	0.005531	-0.025189	-0.999667
409	681262304													0.062502	-0.242574	-9.674621	-0.998867	-0.047401	-0.004326	-0.047277	0.998558	-0.025417	0.005525	-0.025184	-0.999668
410	681270637													0.066400	-0.242853	-9.681401	-0.998867	-0.047390	-0.004320	-0.047266	0.998558	-0.025440	0.005519	-0.025207	-0.999667
411	681278970													0.039684	-0.248361	-9.650180	-0.998868	-0.047374	-0.004332	-0.047249	0.998559	-0.025441	0.005531	-0.025208	-0.999667
412	681287303													0.059197	-0.259069	-9.659464	-0.998870	-0.047327	-0.004333	-0.047203	0.998562	-0.025432	0.005530	-0.025199	-0.999667
413	681295636													0.045571	-0.249548	-9.655622	-0.998871	-0.047316	-0.004341	-0.047191	0.998562	-0.025434	0.005538	-0.025201	-0.999667
414	681303969													0.045700	-0.247488	-9.680222	-0.998872	-0.047294	-0.004348	-0.047169	0.998563	-0.025433	0.005545	-0.025199	-0.999667
415	681312302													0.036293	-0.230107	-9.680923	-0.998872	-0.047291	-0.004339	-0.047166	0.998564	-0.025421	0.005535	-0.025187	-0.999667
416	681320635													0.043468	-0.234492	-9.639522	-0.998871	-0.047300	-0.004338	-0.047175	0.998563	-0.025429	0.005535	-0.025196	-0.999667
417	681328968													0.056314	-0.259963	-9.672289	-0.998871	-0.047305	-0.004348	-0.047179	0.998563	-0.025430	0.005545	-0.025197	-0.999667
418	681337301													0.043940	-0.252524	-9.661266	-0.998874	-0.047235	-0.004345	-0.047109	0.998566	-0.025433	0.005540	-0.025200	-0.999667
419	681345634													0.053346	-0.264527	-9.630180	-0.998874	-0.047232	-0.004348	-0.047107	0.998566	-0.025441	0.005543	-0.025207	-0.999667
420	681353967													0.049390	-0.247553	-9.662604	-0.998879	-0.047140	-0.004363	-0.047014	0.998570	-0.025441	0.005556	-0.025207	-0.999667
421	681362300													0.039891	-0.243647	-9.658119	-0.998879	-0.047133	-0.004365	-0.047007	0.998570	-0.025448	0.005558	-0.025214	-0.999667
422	681370633													0.064182	-0.250607	-9.670401	-0.998880	-0.047121	-0.004363	-0.046995	0.998571	-0.025446	0.005556	-0.025213	-0.999667
423	681378966													0.063131	-0.247974	-9.662533	-0.998880	-0.047114	-0.004361	-0.046989	0.998572	-0.025435	0.005553	-0.025201	-0.999667
424	681387299													0.065992	-0.239070	-9.657318	-0.998881	-0.047100	-0.004369	-0.046975	0.998572	-0.025437	0.005561	-0.025203	-0.999667
425	681395632													0.069998	-0.244384	-9.649135	-0.998881	-0.047084	-0.004379	-0.046959	0.998573	-0.025419	0.005569	-0.025185	-0.999667
426	681403965													0.047681	-0.232553	-9.665658	-0.998882	-0.047066	-0.004381	-0.046940	0.998574	-0.025418	0.005571	-0.025184	-0.999667
427	681412298													0.052681	-0.250535	-9.663941	-0.998882	-0.047067	-0.004386	-0.046940	0.998574	-0.025413	0.005575	-0.025179	-0.999667
428	681420631													0.049748	-0.252481	-9.678448	-0.998882	-0.047073	-0.004388	-0.046947	0.998574	-0.025422	0.005579	-0.025188	-0.999667
429	681428964													0.047431	-0.236738	-9.658334	-0.998882	-0.047073	-0.004392	-0.046946	0.998574	-0.025414	0.005582	-0.025179	-0.999667
430	681437297													0.066135	-0.246787	-9.663634	-0.998884	-0.047031	-0.004390	-0.046905	0.998576	-0.025417	0.005579	-0.025183	-0.999667
431	681445630													0.059190	-0.247767	-9.686552	-0.998884	-0.047029	-0.004395	-0.046902	0.998576	-0.025424	0.005585	-0.025190	-0.999667
432	681453963													0.056064	-0.252123	-9.646195	-0.998886	-0.046974	-0.004387	-0.046848	0.998578	-0.025431	0.005575	-0.025197	-0.999667
433	681462296													0.051679	-0.270606	-9.647769	-0.998887	-0.046972	-0.004384	-0.046846	0.998578	-0.025433	0.005573	-0.025199	-0.999667
434	681470629													0.051694	-0.246136	-9.662018	-0.998888	-0.046932	-0.004383	-0.046806	0.998581	-0.025416	0.005570	-0.025183	-0.999667
435	681478962													0.050921	-0.238869	-9.674864	-0.998889	-0.046927	-0.004377	-0.046802	0.998581	-0.025417	0.005564	-0.025184	-0.999667
436	681487295													0.046930	-0.250636	-9.663005	-0.998891	-0.046885	-0.004387	-0.046759	0.998582	-0.025437	0.005573	-0.025203	-0.999667
437	681495628													0.060205	-0.253425	-9.647647	-0.998891	-0.046873	-0.004390	-0.046747	0.998583	-0.025427	0.005576	-0.025194	-0.999667
438	681503961													0.064590	-0.224099	-9.653384	-0.998892	-0.046866	-0.004384	-0.046740	0.998583	-0.025434	0.005570	-0.025201	-0.999667
439	681512294													0.059590	-0.242932	-9.664256	-0.998891	-0.046871	-0.004389	-0.046745	0.998583	-0.025427	0.005574	-0.025193	-0.999667
440	681520627													0.046257	-0.243833	-9.636274	-0.998891	-0.046868	-0.004393	-0.046742	0.998584	-0.025416	0.005578	-0.025182	-0.999667
441	681528960													0.070019	-0.246043	-9.642576	-0.998892	-0.046856	-0.004401	-0.046730	0.998584	-0.025420	0.005586	-0.025186	-0.999667
442	681537293													0.075162	-0.241179	-9.653227	-0.998894	-0.046815	-0.004400	-0.046689	0.998586	-0.025418	0.005584	-0.025185	-0.999667
443	681545626													0.039848	-0.266257	-9.675393	-0.998894	-0.046808	-0.004405	-0.046681	0.998586	-0.025423	0.005588	-0.025190	-0.999667
444	681553959													0.037767	-0.247352	-9.666602	-0.998896	-0.046769	-0.004411	-0.046642	0.998588	-0.025426	0.005594	-0.025192	-0.999667
445	681562292													0.055599	-0.242117	-9.654020	-0.998896	-0.046776	-0.004398	-0.046649	0.998588	-0.025431	0.005582	-0.025197	-0.999667
446	681570625													0.056836	-0.263210	-9.660937	-0.998897	-0.046754	-0.004398	-0.046627	0.998589	-0.025433	0.005580	-0.025200	-0.999667
447	681578958													0.040836	-0.247617	-9.667603	-0.998897	-0.046753	-0.004402	-0.046627	0.998588	-0.025439	0.005585	-0.025206	-0.999667
448	681587291													0.059590	-0.237596	-9.666438	-0.998897	-0.046754	-0.004411	-0.046627	0.998588	-0.025435	0.005594	-0.025201	-0.999667
449	681595624													0.049326	-0.251952	-9.673841	-0.998896	-0.046762	-0.004414	-0.046635	0.998588	-0.025437	0.005597	-0.025203	-0.999667
450	681603957													0.068968	-0.242017	-9.669142	-0.998899	-0.046714	-0.004413	-0.046587	0.998590	-0.025438	0.005595	-0.025204	-0.999667
451	681612290													0.065813	-0.239978	-9.653170	-0.998898	-0.046717	-0.004430	-0.046590	0.998590	-0.025447	0.005613	-0.025212	-0.999666
452	681620623													0.050234	-0.241537	-9.677589	-0.998898	-0.046714	-0.004433	-0.046587	0.998590	-0.025444	0.005615	-0.025209	-0.999666
453	681628956													0.064712	-0.232618	-9.660243	-0.998898	-0.046715	-0.004420	-0.046588	0.998590	-0.025437	0.005602	-0.025203	-0.999667
454	681637289													0.037073	-0.251644	-9.663355	-0.998898	-0.046729	-0.004428	-0.046602	0.998589	-0.025446	0.005610	-0.025211	-0.999666
455	681645622													0.061572	-0.242045	-9.633413	-0.998898	-0.046721	-0.004432	-0.046593	0.998590	-0.025449	0.005615	-0.025215	-0.999666
456	681653955													0.049905	-0.251322	-9.661080	-0.998900	-0.046676	-0.004438	-0.046549	0.998592	-0.025443	0.005619	-0.025208	-0.999666
457	681662288													0.033955	-0.240608	-9.652791	-0.998900	-0.046672	-0.004430	-0.046544	0.998592	-0.025450	0.005611	-0.025215	-0.999666
458	681670621													0.058997	-0.243182	-9.653791	-0.998900	-0.046677	-0.004425	-0.046550	0.998592	-0.025453	0.005607	-0.025219	-0.999666
459	681678954													0.064154	-0.252252	-9.665022	-0.998900	-0.046685	-0.004422	-0.046558	0.998591	-0.025453	0.005604	-0.025219	-0.999666
460	681687287													0.058024	-0.245264	-9.682159	-0.998901	-0.046666	-0.004413	-0.046540	0.998592	-0.025456	0.005594	-0.025223	-0.999666
461	681695620													0.061736	-0.261780	-9.664907	-0.998901	-0.046660	-0.004415	-0.046533	0.998592	-0.025460	0.005596	-0.025226	-0.999666
462	681703953													0.063882	-0.248869	-9.661244	-0.998902	-0.046650	-0.004406	-0.046523	0.998593	-0.025449	0.005587	-0.025216	-0.999666
463	681712286													0.051057	-0.235901	-9.659400	-0.998902	-0.046649	-0.004390	-0.046523	0.998593	-0.025436	0.005570	-0.025204	-0.999667
464	681720619													0.075835	-0.240936	-9.671824	-0.998902	-0.046649	-0.004404	-0.046523	0.998594	-0.025427	0.005584	-0.025194	-0.999667
465	681728952													0.057509	-0.242417	-9.653899	-0.998901	-0.046658	-0.004400	-0.046532	0.998593	-0.025424	0.005580	-0.025191	-0.999667
466	681737285													0.059133	-0.247324	-9.654578	-0.998902	-0.046634	-0.004420	-0.046507	0.998595	-0.025416	0.005599	-0.025183	-0.999667
467	681745618													0.043254	-0.246008	-9.669349	-0.998902	-0.046634	-0.004413	-0.046508	0.998594	-0.025436	0.005593	-0.025202	-0.999667
468	681753951													0.038046	-0.252846	-9.647497	-0.998903	-0.046627	-0.004411	-0.046500	0.998595	-0.025418	0.005590	-0.025185	-0.999667
469	681762284													0.069483	-0.241731	-9.645859	-0.998904	-0.046604	-0.004401	-0.046478	0.998596	-0.025426	0.005580	-0.025194	-0.999667
470	681770617													0.073631	-0.249799	-9.647326	-0.998905	-0.046574	-0.004413	-0.046448	0.998597	-0.025444	0.005592	-0.025211	-0.999667
471	681778950													0.058167	-0.232210	-9.648334	-0.998906	-0.046564	-0.004416	-0.046437	0.998597	-0.025447	0.005595	-0.025214	-0.999666
472	681787283													0.043396	-0.241072	-9.658134	-0.998907	-0.046525	-0.004411	-0.046398	0.998599	-0.025450	0.005589	-0.025218	-0.999666
473	681795616													0.067852	-0.254727	-9.651839	-0.998908	-0.046521	-0.004397	-0.046395	0.998599	-0.025453	0.005575	-0.025222	-0.999666
474	681803949													0.058532	-0.246001	-9.660537	-0.998909	-0.046499	-0.004413	-0.046372	0.998600	-0.025451	0.005591	-0.025218	-0.999666
475	681812282													0.078324	-0.253475	-9.681144	-0.998909	-0.046494	-0.004429	-0.046366	0.998600	-0.025452	0.005606	-0.025218	-0.999666
476	681820615													0.047516	-0.239813	-9.657475	-0.998907	-0.046539	-0.004389	-0.046412	0.998597	-0.025501	0.005570	-0.025270	-0.999665
477	681828948													0.051243	-0.255349	-9.657167	-0.998907	-0.046534	-0.004401	-0.046407	0.998597	-0.025500	0.005581	-0.025268	-0.999665
478	681837281													0.057473	-0.244313	-9.658420	-0.998908	-0.046517	-0.004422	-0.046390	0.998598	-0.025500	0.005602	-0.025267	-0.999665
479	681845614													0.051193	-0.251637	-9.655172	-0.998907	-0.046524	-0.004420	-0.046397	0.998598	-0.025497	0.005600	-0.025264	-0.999665
480	681853947													0.042202	-0.242446	-9.656345	-0.998909	-0.046493	-0.004426	-0.046366	0.998599	-0.025487	0.005605	-0.025254	-0.999665
481	681862280													0.059655	-0.245049	-9.647776	-0.998909	-0.046487	-0.004434	-0.046359	0.998599	-0.025498	0.005613	-0.025265	-0.999665
482	681870613													0.056665	-0.241330	-9.663927	-0.998910	-0.046475	-0.004423	-0.046347	0.998600	-0.025501	0.005602	-0.025268	-0.999665
483	681878946													0.078424	-0.246043	-9.658512	-0.998910	-0.046476	-0.004431	-0.046349	0.998600	-0.025490	0.005610	-0.025256	-0.999665
484	681887279													0.040006	-0.240157	-9.650215	-0.998910	-0.046470	-0.004436	-0.046342	0.998600	-0.025505	0.005615	-0.025271	-0.999665
485	681895612													0.052087	-0.239542	-9.651503	-0.998910	-0.046465	-0.004434	-0.046338	0.998600	-0.025492	0.005612	-0.025259	-0.999665
486	681903945													0.034791	-0.236695	-9.650738	-0.998912	-0.046427	-0.004424	-0.046300	0.998602	-0.025494	0.005601	-0.025261	-0.999665
487	681912278													0.057981	-0.241158	-9.662725	-0.998912	-0.046433	-0.004424	-0.046306	0.998602	-0.025499	0.005602	-0.025267	-0.999665
488	681920611													0.058968	-0.247825	-9.663283	-0.998912	-0.046427	-0.004429	-0.046299	0.998602	-0.025494	0.005606	-0.025261	-0.999665
489	681928944													0.057630	-0.251809	-9.668827	-0.998912	-0.046426	-0.004423	-0.046299	0.998602	-0.025490	0.005601	-0.025258	-0.999665
490	681937277													0.054226	-0.229971	-9.653934	-0.998913	-0.046407	-0.004411	-0.046280	0.998603	-0.025491	0.005588	-0.025259	-0.999665
491	681945610													0.069411	-0.248526	-9.658691	-0.998912	-0.046416	-0.004415	-0.046289	0.998603	-0.025485	0.005592	-0.025253	-0.999665
492	681953943													0.037924	-0.259848	-9.658520	-0.998913	-0.046399	-0.004409	-0.046272	0.998604	-0.025482	0.005586	-0.025250	-0.999666
493	681962276													0.071013	-0.238733	-9.643735	-0.998914	-0.046391	-0.004392	-0.046264	0.998604	-0.025492	0.005569	-0.025261	-0.999665
494	681970609													0.041379	-0.242467	-9.662740	-0.998915	-0.046353	-0.004395	-0.046226	0.998606	-0.025472	0.005570	-0.025241	-0.999666
495	681978942													0.054962	-0.236788	-9.643413	-0.998916	-0.046347	-0.004392	-0.046221	0.998606	-0.025477	0.005567	-0.025247	-0.999666
496	681987275													0.058045	-0.243769	-9.665386	-0.998916	-0.046333	-0.004379	-0.046207	0.998607	-0.025477	0.005553	-0.025247	-0.999666
497	681995608													0.061193	-0.234105	-9.645108	-0.998916	-0.046342	-0.004376	-0.046216	0.998606	-0.025481	0.005551	-0.025251	-0.999666
498	682003941													0.047345	-0.244048	-9.664650	-0.998918	-0.046298	-0.004386	-0.046172	0.998608	-0.025484	0.005560	-0.025254	-0.999666
499	682012274													0.047487	-0.253253	-9.649921	-0.998918	-0.046303	-0.004391	-0.046176	0.998608	-0.025502	0.005566	-0.025272	-0.999665
500	682020607													0.057309	-0.236630	-9.661373	-0.998919	-0.046277	-0.004405	-0.046151	0.998609	-0.025504	0.005580	-0.025273	-0.999665
501	682028940													0.052838	-0.241573	-9.669878	-0.998919	-0.046281	-0.004395	-0.046154	0.998609	-0.025507	0.005569	-0.025277	-0.999665
502	682037273													0.046658	-0.245886	-9.647683	-0.998921	-0.046240	-0.004387	-0.046113	0.998611	-0.025504	0.005560	-0.025274	-0.999665
503	682045606													0.037516	-0.247452	-9.662482	-0.998921	-0.046231	-0.004382	-0.046105	0.998611	-0.025513	0.005556	-0.025283	-0.999665
504	682053939													0.068245	-0.258847	-9.644493	-0.998921	-0.046224	-0.004391	-0.046097	0.998611	-0.025511	0.005565	-0.025281	-0.999665
505	682062272													0.066207	-0.240779	-9.649014	-0.998921	-0.046235	-0.004385	-0.046109	0.998611	-0.025504	0.005558	-0.025274	-0.999665
506	682070605													0.047702	-0.253997	-9.657997	-0.998923	-0.046202	-0.004378	-0.046075	0.998612	-0.025511	0.005551	-0.025282	-0.999665
507	682078938													0.066500	-0.243483	-9.649343	-0.998922	-0.046204	-0.004383	-0.046077	0.998612	-0.025515	0.005556	-0.025285	-0.999665
508	682087271													0.069504	-0.240121	-9.665208	-0.998923	-0.046181	-0.004400	-0.046054	0.998613	-0.025513	0.005572	-0.025283	-0.999665
509	682095604													0.045041	-0.263253	-9.652111	-0.998924	-0.046170	-0.004415	-0.046043	0.998614	-0.025512	0.005586	-0.025281	-0.999665
510	682103937													0.063360	-0.237753	-9.631360	-0.998924	-0.046173	-0.004403	-0.046046	0.998614	-0.025506	0.005575	-0.025275	-0.999665
511	682112270													0.060184	-0.251823	-9.650080	-0.998924	-0.046168	-0.004408	-0.046041	0.998614	-0.025515	0.005580	-0.025284	-0.999665
512	682120603													0.048375	-0.235186	-9.672933	-0.998925	-0.046155	-0.004392	-0.046029	0.998614	-0.025521	0.005564	-0.025291	-0.999665
513	682128936													0.054705	-0.239048	-9.657797	-0.998925	-0.046156	-0.004385	-0.046030	0.998614	-0.025519	0.005556	-0.025290	-0.999665
514	682137269													0.065420	-0.247495	-9.657196	-0.998926	-0.046123	-0.004397	-0.045997	0.998615	-0.025523	0.005568	-0.025293	-0.999665
515	682145602													0.063339	-0.242932	-9.656517	-0.998926	-0.046127	-0.004387	-0.046000	0.998615	-0.025523	0.005558	-0.025294	-0.999665
516	682153935													0.060985	-0.250450	-9.660050	-0.998927	-0.046094	-0.004391	-0.045968	0.998617	-0.025520	0.005561	-0.025291	-0.999665
517	682162268													0.072294	-0.259834	-9.670987	-0.998927	-0.046100	-0.004388	-0.045974	0.998617	-0.025512	0.005558	-0.025283	-0.999665
518	682170601													0.052309	-0.252195	-9.642826	-0.998929	-0.046059	-0.004385	-0.045933	0.998619	-0.025492	0.005553	-0.025264	-0.999665
519	682178934													0.058789	-0.239677	-9.651731	-0.998930	-0.046051	-0.004376	-0.045925	0.998620	-0.025475	0.005543	-0.025247	-0.999666
520	682187267													0.053224	-0.247918	-9.658234	-0.998930	-0.046040	-0.004376	-0.045914	0.998621	-0.025474	0.005542	-0.025246	-0.999666
521	682195600													0.049047	-0.237632	-9.643584	-0.998930	-0.046030	-0.004387	-0.045904	0.998621	-0.025478	0.005553	-0.025249	-0.999666
522	682203933													0.059598	-0.255500	-9.637554	-0.998933	-0.045984	-0.004385	-0.045858	0.998623	-0.025484	0.005550	-0.025256	-0.999666
523	682212266													0.047988	-0.244262	-9.651217	-0.998933	-0.045979	-0.004383	-0.045853	0.998624	-0.025466	0.005548	-0.025238	-0.999666
524	682220599													0.055363	-0.244434	-9.638077	-0.998932	-0.045987	-0.004385	-0.045860	0.998623	-0.025483	0.005551	-0.025255	-0.999666
525	682228932													0.062788	-0.227453	-9.658398	-0.998933	-0.045976	-0.004383	-0.045850	0.998624	-0.025473	0.005548	-0.025245	-0.999666
526	682237265													0.059519	-0.245951	-9.656388	-0.998933	-0.045976	-0.004387	-0.045850	0.998624	-0.025466	0.005551	-0.025238	-0.999666
527	682245598													0.040278	-0.253211	-9.640308	-0.998933	-0.045976	-0.004392	-0.045850	0.998623	-0.025478	0.005557	-0.025250	-0.999666
528	682253931													0.046794	-0.249520	-9.658963	-0.998934	-0.045955	-0.004386	-0.045829	0.998624	-0.025482	0.005551	-0.025254	-0.999666
529	682262264													0.056357	-0.242603	-9.670773	-0.998933	-0.045967	-0.004395	-0.045840	0.998624	-0.025487	0.005561	-0.025258	-0.999665
530	682270597													0.045757	-0.244942	-9.675694	-0.998933	-0.045974	-0.004408	-0.045847	0.998623	-0.025498	0.005574	-0.025269	-0.999665
531	682278930													0.049576	-0.261894	-9.665952	-0.998933	-0.045976	-0.004408	-0.045849	0.998623	-0.025488	0.005573	-0.025259	-0.999665
532	682287263													0.060806	-0.255035	-9.642204	-0.998934	-0.045944	-0.004415	-0.045817	0.998625	-0.025480	0.005580	-0.025250	-0.999666
533	682295596													0.047845	-0.241222	-9.657304	-0.998934	-0.045948	-0.004431	-0.045821	0.998624	-0.025496	0.005596	-0.025266	-0.999665
534	682303929													0.045678	-0.244384	-9.653069	-0.998934	-0.045949	-0.004429	-0.045821	0.998624	-0.025496	0.005595	-0.025266	-0.999665
535	682312262													0.051336	-0.252123	-9.671946	-0.998934	-0.045942	-0.004428	-0.045815	0.998625	-0.025493	0.005593	-0.025263	-0.999665
536	682320595													0.050349	-0.236008	-9.669277	-0.998937	-0.045886	-0.004428	-0.045759	0.998627	-0.025516	0.005593	-0.025286	-0.999665
537	682328928													0.064097	-0.242374	-9.646646	-0.998937	-0.045892	-0.004423	-0.045765	0.998626	-0.025515	0.005588	-0.025285	-0.999665
538	682337261													0.049512	-0.236065	-9.663506	-0.998937	-0.045882	-0.004436	-0.045754	0.998627	-0.025525	0.005601	-0.025295	-0.999664
539	682345594													0.052259	-0.243440	-9.664514	-0.998937	-0.045878	-0.004428	-0.045751	0.998627	-0.025530	0.005594	-0.025300	-0.999664
540	682353927													0.049691	-0.249198	-9.671709	-0.998937	-0.045874	-0.004442	-0.045747	0.998627	-0.025532	0.005607	-0.025301	-0.999664
541	682362260													0.049991	-0.234156	-9.648534	-0.998937	-0.045873	-0.004439	-0.045746	0.998627	-0.025541	0.005604	-0.025311	-0.999664
542	682370593													0.062809	-0.224135	-9.653499	-0.998939	-0.045843	-0.004442	-0.045715	0.998628	-0.025543	0.005607	-0.025312	-0.999664
543	682378926													0.044748	-0.245142	-9.657146	-0.998939	-0.045843	-0.004437	-0.045716	0.998628	-0.025540	0.005602	-0.025311	-0.999664
544	682387259													0.046701	-0.242009	-9.653828	-0.998938	-0.045852	-0.004448	-0.045724	0.998628	-0.025535	0.005613	-0.025305	-0.999664
545	682395592													0.057917	-0.255385	-9.666767	-0.998938	-0.045856	-0.004442	-0.045728	0.998628	-0.025531	0.005606	-0.025300	-0.999664
546	682403925													0.048146	-0.247002	-9.654514	-0.998939	-0.045841	-0.004450	-0.045712	0.998628	-0.025539	0.005615	-0.025308	-0.999664
547	682412258													0.048017	-0.250407	-9.671680	-0.998939	-0.045841	-0.004447	-0.045713	0.998628	-0.025537	0.005612	-0.025306	-0.999664
548	682420591													0.051858	-0.261887	-9.669377	-0.998938	-0.045849	-0.004454	-0.045721	0.998628	-0.025540	0.005619	-0.025310	-0.999664
549	682428924													0.058932	-0.252323	-9.657676	-0.998939	-0.045843	-0.004463	-0.045714	0.998628	-0.025528	0.005627	-0.025297	-0.999664
550	682437257													0.046408	-0.237639	-9.657704	-0.998940	-0.045806	-0.004478	-0.045678	0.998630	-0.025524	0.005641	-0.025292	-0.999664
551	682445590													0.056450	-0.248153	-9.664536	-0.998940	-0.045813	-0.004467	-0.045685	0.998630	-0.025530	0.005631	-0.025299	-0.999664
552	682453923													0.041479	-0.251709	-9.653227	-0.998939	-0.045825	-0.004471	-0.045697	0.998629	-0.025530	0.005635	-0.025299	-0.999664
553	682462256													0.048389	-0.247045	-9.656825	-0.998940	-0.045822	-0.004462	-0.045693	0.998629	-0.025526	0.005625	-0.025295	-0.999664
554	682470589													0.053668	-0.236731	-9.644679	-0.998940	-0.045817	-0.004459	-0.045689	0.998630	-0.025506	0.005622	-0.025275	-0.999665
555	682478922													0.059082	-0.244699	-9.671094	-0.998940	-0.045815	-0.004449	-0.045687	0.998631	-0.025490	0.005610	-0.025260	-0.999665
556	682487255													0.056071	-0.240736	-9.657003	-0.998941	-0.045797	-0.004442	-0.045669	0.998631	-0.025486	0.005603	-0.025256	-0.999665
557	682495588													0.069919	-0.241058	-9.664536	-0.998940	-0.045820	-0.004449	-0.045692	0.998630	-0.025488	0.005611	-0.025258	-0.999665
558	682503921													0.050764	-0.232746	-9.649757	-0.998941	-0.045797	-0.004448	-0.045670	0.998632	-0.025475	0.005609	-0.025244	-0.999666
559	682512254													0.065763	-0.243447	-9.659850	-0.998941	-0.045792	-0.004442	-0.045665	0.998632	-0.025487	0.005603	-0.025257	-0.999665
560	682520587													0.045349	-0.252159	-9.668112	-0.998942	-0.045782	-0.004432	-0.045654	0.998632	-0.025491	0.005593	-0.025262	-0.999665
561	682528920													0.046322	-0.235013	-9.637540	-0.998942	-0.045770	-0.004432	-0.045643	0.998633	-0.025484	0.005592	-0.025255	-0.999665
562	682537253													0.066808	-0.252359	-9.654979	-0.998943	-0.045751	-0.004437	-0.045624	0.998634	-0.025479	0.005596	-0.025250	-0.999666
563	682545586													0.032746	-0.246430	-9.645859	-0.998943	-0.045750	-0.004431	-0.045622	0.998633	-0.025498	0.005592	-0.025269	-0.999665
564	682553919													0.051422	-0.242238	-9.643112	-0.998944	-0.045725	-0.004423	-0.045598	0.998634	-0.025503	0.005583	-0.025274	-0.999665
565	682562252													0.023375	-0.254734	-9.636246	-0.998945	-0.045718	-0.004418	-0.045591	0.998635	-0.025502	0.005578	-0.025273	-0.999665
566	682570585													0.055370	-0.253990	-9.639035	-0.998945	-0.045714	-0.004425	-0.045587	0.998635	-0.025496	0.005584	-0.025267	-0.999665
567	682578918													0.034749	-0.257123	-9.656488	-0.998945	-0.045709	-0.004434	-0.045582	0.998635	-0.025498	0.005593	-0.025269	-0.999665
568	682587251													0.052867	-0.238762	-9.654986	-0.998945	-0.045705	-0.004432	-0.045577	0.998635	-0.025507	0.005592	-0.025279	-0.999665
569	682595584													0.046844	-0.243626	-9.668784	-0.998945	-0.045706	-0.004437	-0.045579	0.998635	-0.025510	0.005597	-0.025281	-0.999665
570	682603917													0.053983	-0.251988	-9.659636	-0.998945	-0.045698	-0.004441	-0.045570	0.998636	-0.025499	0.005600	-0.025270	-0.999665
571	682612250													0.055563	-0.236580	-9.653885	-0.998946	-0.045695	-0.004450	-0.045567	0.998636	-0.025493	0.005609	-0.025264	-0.999665
572	682620583													0.044920	-0.250042	-9.649700	-0.998947	-0.045655	-0.004461	-0.045527	0.998638	-0.025494	0.005619	-0.025264	-0.999665
573	682628916													0.061808	-0.255256	-9.654378	-0.998948	-0.045645	-0.004469	-0.045517	0.998638	-0.025490	0.005626	-0.025259	-0.999665
574	682637249													0.054347	-0.252123	-9.648562	-0.998947	-0.045653	-0.004470	-0.045525	0.998638	-0.025491	0.005627	-0.025260	-0.999665
575	682645582													0.048224	-0.236294	-9.678655	-0.998947	-0.045666	-0.004478	-0.045537	0.998637	-0.025486	0.005636	-0.025256	-0.999665
576	682653915													0.044984	-0.235043	-9.647483	-0.998947	-0.045655	-0.004481	-0.045527	0.998638	-0.025486	0.005638	-0.025255	-0.999665
577	682662248													0.055785	-0.241187	-9.643020	-0.998947	-0.045655	-0.004482	-0.045527	0.998638	-0.025487	0.005639	-0.025256	-0.999665
578	682670581													0.057144	-0.240714	-9.652905	-0.998948	-0.045648	-0.004490	-0.045519	0.998639	-0.025471	0.005647	-0.025240	-0.999665
579	682678914													0.058374	-0.255257	-9.655673	-0.998948	-0.045643	-0.004490	-0.045514	0.998639	-0.025462	0.005646	-0.025230	-0.999666
580	682687247													0.052151	-0.235228	-9.655308	-0.998949	-0.045609	-0.004489	-0.045480	0.998641	-0.025463	0.005644	-0.025232	-0.999666
581	682695580													0.044662	-0.248776	-9.661445	-0.998949	-0.045613	-0.004492	-0.045484	0.998641	-0.025457	0.005647	-0.025226	-0.999666
582	682703913													0.043224	-0.259448	-9.650123	-0.998949	-0.045607	-0.004494	-0.045478	0.998641	-0.025457	0.005649	-0.025226	-0.999666
583	682712246													0.065227	-0.255986	-9.671022	-0.998949	-0.045612	-0.004490	-0.045484	0.998641	-0.025454	0.005645	-0.025223	-0.999666
584	682720579													0.056815	-0.257245	-9.676495	-0.998951	-0.045578	-0.004478	-0.045450	0.998642	-0.025450	0.005632	-0.025220	-0.999666
585	682728912													0.051837	-0.247746	-9.648427	-0.998951	-0.045575	-0.004477	-0.045447	0.998643	-0.025437	0.005630	-0.025206	-0.999666
586	682737245													0.053482	-0.239084	-9.654328	-0.998951	-0.045567	-0.004493	-0.045439	0.998643	-0.025431	0.005646	-0.025201	-0.999666
587	682745578													0.062580	-0.247188	-9.660824	-0.998951	-0.045564	-0.004492	-0.045435	0.998644	-0.025432	0.005645	-0.025201	-0.999666
588	682753911													0.057330	-0.242160	-9.642276	-0.998953	-0.045536	-0.004494	-0.045408	0.998645	-0.025435	0.005646	-0.025204	-0.999666
589	682762244													0.048024	-0.244291	-9.664571	-0.998953	-0.045522	-0.004504	-0.045393	0.998645	-0.025435	0.005656	-0.025204	-0.999666
590	682770577													0.048511	-0.240893	-9.638098	-0.998953	-0.045530	-0.004494	-0.045401	0.998645	-0.025443	0.005647	-0.025212	-0.999666
591	682778910													0.049448	-0.249434	-9.665251	-0.998952	-0.045540	-0.004497	-0.045411	0.998644	-0.025443	0.005650	-0.025212	-0.999666
592	682787243													0.044677	-0.243139	-9.654349	-0.998953	-0.045537	-0.004486	-0.045408	0.998644	-0.025456	0.005639	-0.025226	-0.999666
593	682795576													0.052752	-0.247288	-9.662397	-0.998953	-0.045534	-0.004470	-0.045407	0.998644	-0.025451	0.005623	-0.025221	-0.999666
594	682803909													0.071435	-0.237474	-9.667110	-0.998953	-0.045535	-0.004481	-0.045407	0.998644	-0.025454	0.005634	-0.025224	-0.999666
595	682812242													0.038225	-0.235822	-9.656409	-0.998953	-0.045536	-0.004474	-0.045408	0.998644	-0.025461	0.005628	-0.025231	-0.999666
596	682820575													0.055485	-0.231287	-9.658998	-0.998953	-0.045527	-0.004473	-0.045399	0.998644	-0.025468	0.005626	-0.025238	-0.999666
597	682828908													0.046601	-0.243783	-9.657139	-0.998954	-0.045515	-0.004470	-0.045387	0.998645	-0.025458	0.005623	-0.025229	-0.999666
598	682837241													0.050163	-0.239906	-9.663706	-0.998954	-0.045508	-0.004484	-0.045380	0.998645	-0.025465	0.005636	-0.025235	-0.999666
599	682845574													0.063696	-0.236115	-9.642554	-0.998954	-0.045501	-0.004498	-0.045373	0.998646	-0.025441	0.005649	-0.025210	-0.999666
600	682853907													0.049462	-0.242260	-9.669349	-0.998954	-0.045507	-0.004494	-0.045378	0.998646	-0.025439	0.005645	-0.025208	-0.999666
601	682862240													0.033096	-0.253182	-9.659779	-0.998954	-0.045504	-0.004503	-0.045375	0.998647	-0.025412	0.005653	-0.025181	-0.999667
602	682870573													0.050277	-0.250085	-9.660494	-0.998955	-0.045488	-0.004516	-0.045359	0.998647	-0.025419	0.005666	-0.025188	-0.999667
603	682878906													0.046071	-0.244813	-9.661130	-0.998955	-0.045487	-0.004523	-0.045358	0.998647	-0.025420	0.005673	-0.025188	-0.999667
604	682887239													0.053839	-0.247860	-9.657640	-0.998955	-0.045475	-0.004531	-0.045346	0.998648	-0.025422	0.005681	-0.025190	-0.999667
605	682895572													0.045263	-0.237103	-9.689156	-0.998955	-0.045479	-0.004540	-0.045350	0.998648	-0.025413	0.005690	-0.025181	-0.999667
606	682903905													0.041873	-0.249684	-9.660300	-0.998955	-0.045484	-0.004535	-0.045355	0.998648	-0.025399	0.005684	-0.025167	-0.999667
607	682912238													0.065491	-0.247517	-9.636246	-0.998955	-0.045484	-0.004538	-0.045355	0.998648	-0.025406	0.005687	-0.025174	-0.999667
608	682920571													0.060892	-0.240042	-9.663255	-0.998955	-0.045488	-0.004531	-0.045358	0.998648	-0.025402	0.005681	-0.025170	-0.999667
609	682928904													0.061536	-0.254670	-9.667783	-0.998954	-0.045495	-0.004514	-0.045366	0.998647	-0.025400	0.005664	-0.025168	-0.999667
610	682937237													0.061457	-0.236916	-9.663484	-0.998954	-0.045495	-0.004527	-0.045366	0.998647	-0.025402	0.005676	-0.025170	-0.999667
611	682945570													0.067208	-0.240565	-9.651896	-0.998954	-0.045495	-0.004529	-0.045366	0.998648	-0.025393	0.005678	-0.025161	-0.999667
612	682953903													0.063868	-0.249641	-9.657067	-0.998954	-0.045492	-0.004534	-0.045363	0.998648	-0.025395	0.005684	-0.025162	-0.999667
613	682962236													0.046859	-0.234499	-9.644514	-0.998954	-0.045506	-0.004526	-0.045376	0.998647	-0.025403	0.005676	-0.025171	-0.999667
614	682970569													0.057774	-0.240822	-9.668548	-0.998955	-0.045481	-0.004527	-0.045352	0.998648	-0.025390	0.005675	-0.025158	-0.999667
615	682978902													0.054183	-0.237260	-9.663755	-0.998955	-0.045481	-0.004537	-0.045352	0.998649	-0.025384	0.005686	-0.025151	-0.999667
616	682987235													0.058746	-0.253246	-9.667432	-0.998954	-0.045490	-0.004549	-0.045361	0.998648	-0.025374	0.005697	-0.025141	-0.999668
617	682995568													0.062838	-0.243054	-9.637897	-0.998954	-0.045495	-0.004546	-0.045366	0.998649	-0.025348	0.005693	-0.025115	-0.999668
618	683003901													0.057545	-0.250400	-9.659571	-0.998955	-0.045475	-0.004541	-0.045346	0.998650	-0.025353	0.005688	-0.025120	-0.999668
619	683012234													0.052445	-0.244591	-9.656202	-0.998955	-0.045467	-0.004549	-0.045337	0.998650	-0.025357	0.005695	-0.025124	-0.999668
620	683020567													0.046558	-0.250757	-9.660572	-0.998955	-0.045476	-0.004556	-0.045346	0.998649	-0.025361	0.005703	-0.025128	-0.999668
621	683028900													0.069404	-0.240636	-9.666330	-0.998955	-0.045475	-0.004557	-0.045346	0.998649	-0.025364	0.005704	-0.025131	-0.999668
622	683037233													0.060513	-0.238734	-9.656388	-0.998955	-0.045472	-0.004556	-0.045342	0.998649	-0.025372	0.005704	-0.025139	-0.999668
623	683045566													0.051286	-0.234671	-9.672825	-0.998955	-0.045466	-0.004569	-0.045336	0.998649	-0.025378	0.005716	-0.025144	-0.999667
624	683053899													0.039663	-0.242303	-9.673813	-0.998956	-0.045453	-0.004566	-0.045323	0.998650	-0.025365	0.005712	-0.025131	-0.999668
625	683062232													0.051007	-0.243018	-9.675029	-0.998956	-0.045459	-0.004556	-0.045329	0.998650	-0.025383	0.005703	-0.025150	-0.999667
626	683070565													0.057294	-0.248690	-9.658011	-0.998956	-0.045451	-0.004554	-0.045322	0.998650	-0.025361	0.005701	-0.025128	-0.999668
627	683078898													0.048282	-0.242968	-9.653613	-0.998956	-0.045457	-0.004563	-0.045328	0.998650	-0.025352	0.005710	-0.025118	-0.999668
628	683087231													0.039669	-0.252245	-9.663048	-0.998957	-0.045440	-0.004564	-0.045310	0.998651	-0.025350	0.005710	-0.025117	-0.999668
629	683095564													0.053554	-0.251201	-9.680021	-0.998957	-0.045430	-0.004565	-0.045300	0.998652	-0.025356	0.005710	-0.025123	-0.999668
630	683103897													0.030671	-0.246515	-9.651110	-0.998958	-0.045412	-0.004563	-0.045282	0.998652	-0.025364	0.005709	-0.025131	-0.999668
631	683112230													0.057151	-0.247689	-9.656345	-0.998958	-0.045420	-0.004571	-0.045290	0.998652	-0.025355	0.005717	-0.025121	-0.999668
632	683120563													0.069433	-0.254799	-9.659893	-0.998957	-0.045421	-0.004568	-0.045292	0.998652	-0.025360	0.005714	-0.025126	-0.999668
633	683128896													0.052123	-0.242424	-9.658749	-0.998957	-0.045432	-0.004549	-0.045303	0.998651	-0.025359	0.005695	-0.025127	-0.999668
634	683137229													0.066915	-0.248676	-9.661095	-0.998958	-0.045405	-0.004548	-0.045275	0.998653	-0.025362	0.005694	-0.025129	-0.999668
635	683145562													0.051093	-0.229778	-9.671502	-0.998958	-0.045407	-0.004560	-0.045277	0.998653	-0.025350	0.005705	-0.025117	-0.999668
636	683153895													0.042853	-0.253353	-9.658755	-0.998959	-0.045383	-0.004549	-0.045254	0.998654	-0.025349	0.005693	-0.025117	-0.999668
637	683162228													0.039326	-0.236037	-9.651653	-0.998959	-0.045384	-0.004536	-0.045255	0.998654	-0.025344	0.005680	-0.025112	-0.999668
638	683170561													0.066908	-0.239935	-9.662997	-0.998960	-0.045381	-0.004520	-0.045253	0.998654	-0.025332	0.005663	-0.025102	-0.999669
639	683178894													0.046622	-0.257946	-9.663999	-0.998960	-0.045375	-0.004506	-0.045247	0.998655	-0.025328	0.005650	-0.025098	-0.999669
640	683187227													0.059404	-0.242782	-9.653734	-0.998960	-0.045366	-0.004505	-0.045238	0.998655	-0.025329	0.005648	-0.025099	-0.999669
641	683195560													0.057208	-0.253511	-9.674420	-0.998960	-0.045371	-0.004480	-0.045244	0.998655	-0.025331	0.005623	-0.025102	-0.999669
642	683203893													0.055985	-0.240107	-9.652947	-0.998960	-0.045385	-0.004453	-0.045258	0.998654	-0.025342	0.005597	-0.025114	-0.999669
643	683212226													0.057559	-0.251895	-9.665243	-0.998960	-0.045379	-0.004449	-0.045252	0.998654	-0.025335	0.005592	-0.025108	-0.999669
644	683220559													0.061050	-0.254720	-9.654950	-0.998960	-0.045370	-0.004458	-0.045243	0.998655	-0.025339	0.005602	-0.025111	-0.999669
645	683228892													0.059218	-0.241194	-9.637004	-0.998960	-0.045377	-0.004448	-0.045250	0.998654	-0.025344	0.005592	-0.025116	-0.999669
646	683237225													0.052616	-0.233883	-9.648370	-0.998961	-0.045353	-0.004446	-0.045226	0.998655	-0.025343	0.005589	-0.025116	-0.999669
647	683245558													0.065592	-0.245228	-9.650373	-0.998961	-0.045362	-0.004449	-0.045235	0.998655	-0.025349	0.005593	-0.025122	-0.999669
648	683253891													0.056143	-0.241609	-9.674335	-0.998961	-0.045351	-0.004452	-0.045224	0.998655	-0.025343	0.005595	-0.025116	-0.999669
649	683262224													0.068446	-0.258068	-9.642182	-0.998962	-0.045337	-0.004452	-0.045210	0.998656	-0.025350	0.005595	-0.025122	-0.999669
650	683270557													0.049004	-0.256715	-9.669249	-0.998962	-0.045332	-0.004456	-0.045205	0.998656	-0.025358	0.005599	-0.025130	-0.999669
651	683278890													0.052130	-0.239906	-9.660093	-0.998962	-0.045325	-0.004448	-0.045198	0.998656	-0.025372	0.005592	-0.025145	-0.999668
652	683287223													0.046415	-0.228290	-9.660179	-0.998963	-0.045312	-0.004460	-0.045185	0.998657	-0.025363	0.005604	-0.025135	-0.999668
653	683295556													0.053096	-0.242711	-9.658670	-0.998963	-0.045304	-0.004448	-0.045177	0.998657	-0.025362	0.005591	-0.025135	-0.999668
654	683303889													0.049441	-0.240593	-9.644450	-0.998963	-0.045302	-0.004460	-0.045175	0.998657	-0.025361	0.005603	-0.025133	-0.999668
655	683312222													0.048138	-0.243318	-9.659385	-0.998963	-0.045301	-0.004449	-0.045175	0.998657	-0.025364	0.005592	-0.025137	-0.999668
656	683320555													0.075341	-0.251737	-9.680264	-0.998964	-0.045299	-0.004456	-0.045172	0.998657	-0.025374	0.005599	-0.025146	-0.999668
657	683328888													0.070656	-0.233784	-9.642462	-0.998963	-0.045304	-0.004449	-0.045177	0.998657	-0.025375	0.005592	-0.025148	-0.999668
658	683337221													0.070899	-0.260514	-9.652941	-0.998965	-0.045276	-0.004449	-0.045150	0.998658	-0.025369	0.005592	-0.025142	-0.999668
659	683345554													0.048489	-0.238898	-9.661510	-0.998965	-0.045275	-0.004451	-0.045148	0.998658	-0.025358	0.005593	-0.025131	-0.999669
660	683353887													0.047752	-0.247803	-9.650287	-0.998965	-0.045277	-0.004450	-0.045150	0.998659	-0.025349	0.005592	-0.025122	-0.999669
661	683362220													0.057273	-0.260421	-9.662776	-0.998965	-0.045269	-0.004448	-0.045142	0.998659	-0.025342	0.005589	-0.025115	-0.999669
662	683370553													0.043525	-0.241237	-9.658577	-0.998965	-0.045269	-0.004447	-0.045142	0.998659	-0.025347	0.005589	-0.025120	-0.999669
663	683378886													0.053868	-0.237475	-9.655594	-0.998965	-0.045266	-0.004438	-0.045140	0.998659	-0.025354	0.005580	-0.025128	-0.999669
664	683387219													0.049133	-0.250149	-9.660501	-0.998966	-0.045251	-0.004443	-0.045124	0.998660	-0.025357	0.005584	-0.025130	-0.999669
665	683395552													0.039705	-0.244627	-9.657868	-0.998966	-0.045246	-0.004439	-0.045119	0.998660	-0.025362	0.005581	-0.025135	-0.999668
666	683403885													0.048232	-0.244198	-9.656403	-0.998966	-0.045250	-0.004439	-0.045124	0.998659	-0.025360	0.005580	-0.025133	-0.999669
667	683412218													0.057909	-0.243011	-9.666595	-0.998965	-0.045260	-0.004435	-0.045133	0.998659	-0.025362	0.005577	-0.025135	-0.999669
668	683420551													0.033211	-0.242617	-9.652483	-0.998966	-0.045251	-0.004450	-0.045124	0.998659	-0.025363	0.005592	-0.025136	-0.999668
669	683428884													0.032896	-0.244541	-9.650587	-0.998966	-0.045255	-0.004440	-0.045128	0.998659	-0.025357	0.005582	-0.025130	-0.999669
670	683437217													0.055005	-0.232890	-9.667589	-0.998966	-0.045254	-0.004422	-0.045128	0.998660	-0.025349	0.005563	-0.025123	-0.999669
671	683445550													0.068295	-0.245142	-9.681123	-0.998966	-0.045238	-0.004427	-0.045112	0.998660	-0.025351	0.005567	-0.025125	-0.999669
672	683453883													0.050177	-0.241952	-9.647790	-0.998967	-0.045232	-0.004429	-0.045106	0.998661	-0.025335	0.005569	-0.025109	-0.999669
673	683462216													0.045828	-0.237431	-9.661724	-0.998967	-0.045236	-0.004425	-0.045110	0.998661	-0.025335	0.005565	-0.025109	-0.999669
674	683470549													0.060027	-0.244971	-9.686681	-0.998967	-0.045234	-0.004428	-0.045108	0.998661	-0.025338	0.005568	-0.025112	-0.999669
675	683478882													0.045263	-0.244448	-9.644851	-0.998967	-0.045223	-0.004425	-0.045097	0.998661	-0.025340	0.005565	-0.025114	-0.999669
676	683487215													0.058231	-0.237024	-9.659542	-0.998967	-0.045213	-0.004440	-0.045087	0.998661	-0.025357	0.005580	-0.025131	-0.999669
677	683495548													0.050163	-0.246630	-9.667174	-0.998967	-0.045214	-0.004443	-0.045087	0.998661	-0.025353	0.005583	-0.025127	-0.999669
678	683503881													0.044347	-0.232453	-9.634887	-0.998968	-0.045208	-0.004451	-0.045081	0.998662	-0.025350	0.005591	-0.025123	-0.999669
679	683512214													0.048804	-0.245822	-9.657418	-0.998968	-0.045200	-0.004456	-0.045073	0.998662	-0.025342	0.005595	-0.025115	-0.999669
680	683520547													0.047774	-0.248433	-9.642097	-0.998969	-0.045185	-0.004453	-0.045058	0.998663	-0.025345	0.005592	-0.025118	-0.999669
681	683528880													0.051980	-0.246158	-9.665987	-0.998969	-0.045190	-0.004445	-0.045063	0.998663	-0.025347	0.005584	-0.025121	-0.999669
682	683537213													0.041386	-0.246838	-9.672732	-0.998969	-0.045186	-0.004452	-0.045060	0.998663	-0.025344	0.005592	-0.025117	-0.999669
683	683545546													0.046315	-0.226538	-9.662096	-0.998969	-0.045181	-0.004465	-0.045054	0.998663	-0.025351	0.005605	-0.025124	-0.999669
684	683553879													0.054633	-0.240450	-9.670450	-0.998969	-0.045183	-0.004477	-0.045055	0.998662	-0.025367	0.005617	-0.025139	-0.999668
685	683562212													0.068996	-0.250621	-9.648076	-0.998968	-0.045188	-0.004470	-0.045061	0.998662	-0.025372	0.005611	-0.025144	-0.999668
686	683570545													0.056987	-0.241301	-9.659836	-0.998969	-0.045183	-0.004482	-0.045056	0.998663	-0.025351	0.005622	-0.025123	-0.999669
687	683578878													0.051264	-0.250828	-9.658641	-0.998969	-0.045187	-0.004478	-0.045059	0.998662	-0.025355	0.005617	-0.025127	-0.999668
688	683587211													0.051951	-0.252452	-9.645687	-0.998969	-0.045180	-0.004480	-0.045052	0.998663	-0.025363	0.005620	-0.025135	-0.999668
689	683595544													0.051922	-0.243325	-9.651131	-0.998969	-0.045165	-0.004486	-0.045037	0.998664	-0.025352	0.005625	-0.025123	-0.999669
690	683603877													0.048174	-0.242503	-9.657740	-0.998970	-0.045159	-0.004501	-0.045031	0.998664	-0.025351	0.005640	-0.025122	-0.999668
691	683612210													0.062115	-0.255664	-9.654321	-0.998970	-0.045161	-0.004506	-0.045032	0.998664	-0.025360	0.005645	-0.025131	-0.999668
692	683620543													0.050363	-0.242360	-9.664085	-0.998970	-0.045155	-0.004496	-0.045027	0.998664	-0.025346	0.005635	-0.025118	-0.999669
693	683628876													0.057359	-0.239320	-9.664070	-0.998970	-0.045149	-0.004500	-0.045021	0.998664	-0.025345	0.005638	-0.025116	-0.999669
694	683637209													0.050335	-0.229663	-9.673319	-0.998970	-0.045147	-0.004493	-0.045019	0.998665	-0.025334	0.005630	-0.025106	-0.999669
695	683645542													0.042624	-0.260099	-9.670386	-0.998971	-0.045142	-0.004483	-0.045015	0.998665	-0.025338	0.005621	-0.025111	-0.999669
696	683653875													0.052266	-0.239620	-9.657247	-0.998971	-0.045131	-0.004491	-0.045003	0.998666	-0.025319	0.005628	-0.025090	-0.999669
697	683662208													0.052538	-0.239642	-9.655480	-0.998971	-0.045130	-0.004500	-0.045002	0.998666	-0.025317	0.005636	-0.025089	-0.999669
698	683670541													0.055442	-0.233011	-9.654200	-0.998971	-0.045119	-0.004502	-0.044991	0.998666	-0.025328	0.005638	-0.025099	-0.999669
699	683678874													0.051937	-0.251665	-9.653899	-0.998971	-0.045129	-0.004487	-0.045002	0.998666	-0.025329	0.005624	-0.025101	-0.999669
700	683687207													0.059898	-0.240343	-9.640609	-0.998971	-0.045120	-0.004490	-0.044992	0.998666	-0.025330	0.005627	-0.025102	-0.999669
701	683695540													0.052080	-0.257087	-9.665629	-0.998971	-0.045122	-0.004510	-0.044993	0.998666	-0.025330	0.005647	-0.025101	-0.999669
702	683703873													0.054447	-0.252181	-9.664242	-0.998972	-0.045115	-0.004512	-0.044987	0.998667	-0.025314	0.005648	-0.025085	-0.999669
703	683712206													0.051622	-0.250471	-9.654006	-0.998972	-0.045108	-0.004521	-0.044980	0.998667	-0.025305	0.005657	-0.025075	-0.999670
704	683720539													0.055470	-0.237238	-9.666059	-0.998972	-0.045109	-0.004517	-0.044981	0.998667	-0.025303	0.005652	-0.025074	-0.999670
705	683728872													0.061064	-0.238519	-9.650609	-0.998972	-0.045107	-0.004519	-0.044979	0.998667	-0.025303	0.005654	-0.025074	-0.999670
706	683737205													0.061128	-0.261157	-9.660851	-0.998972	-0.045099	-0.004513	-0.044971	0.998668	-0.025300	0.005648	-0.025071	-0.999670
707	683745538													0.057101	-0.237131	-9.672410	-0.998972	-0.045111	-0.004503	-0.044983	0.998667	-0.025298	0.005638	-0.025069	-0.999670
708	683753871													0.049862	-0.247059	-9.653791	-0.998972	-0.045104	-0.004509	-0.044976	0.998668	-0.025302	0.005645	-0.025074	-0.999670
709	683762204													0.059104	-0.245843	-9.665758	-0.998972	-0.045105	-0.004508	-0.044977	0.998668	-0.025299	0.005643	-0.025070	-0.999670
710	683770537													0.055477	-0.249985	-9.657390	-0.998972	-0.045098	-0.004520	-0.044970	0.998668	-0.025305	0.005655	-0.025076	-0.999670
711	683778870													0.040256	-0.249069	-9.640037	-0.998973	-0.045090	-0.004529	-0.044962	0.998668	-0.025302	0.005664	-0.025073	-0.999670
712	683787203													0.067551	-0.235364	-9.656466	-0.998973	-0.045091	-0.004533	-0.044962	0.998668	-0.025296	0.005668	-0.025067	-0.999670
713	683795536													0.055642	-0.250035	-9.648084	-0.998973	-0.045088	-0.004527	-0.044960	0.998669	-0.025288	0.005661	-0.025059	-0.999670
714	683803869													0.056300	-0.263310	-9.662018	-0.998974	-0.045070	-0.004530	-0.044942	0.998669	-0.025302	0.005664	-0.025073	-0.999670
715	683812202													0.040199	-0.253961	-9.666953	-0.998974	-0.045064	-0.004535	-0.044935	0.998669	-0.025312	0.005670	-0.025082	-0.999669
716	683820535													0.066858	-0.255371	-9.649535	-0.998972	-0.045115	-0.004495	-0.044987	0.998663	-0.025468	0.005638	-0.025239	-0.999666
717	683828868													0.059469	-0.250564	-9.645580	-0.998972	-0.045108	-0.004499	-0.044979	0.998663	-0.025466	0.005642	-0.025238	-0.999666
718	683837201													0.059891	-0.245579	-9.679735	-0.998973	-0.045094	-0.004497	-0.044965	0.998664	-0.025467	0.005640	-0.025238	-0.999666
719	683845534													0.055542	-0.253568	-9.646639	-0.998973	-0.045093	-0.004508	-0.044964	0.998664	-0.025475	0.005651	-0.025246	-0.999665
720	683853867													0.044312	-0.250192	-9.654922	-0.998973	-0.045093	-0.004493	-0.044964	0.998664	-0.025477	0.005636	-0.025249	-0.999665
721	683862200													0.052302	-0.251916	-9.659121	-0.998973	-0.045096	-0.004501	-0.044967	0.998664	-0.025471	0.005643	-0.025242	-0.999665
722	683870533													0.076449	-0.253690	-9.635359	-0.998973	-0.045085	-0.004497	-0.044956	0.998664	-0.025472	0.005639	-0.025244	-0.999665
723	683878866													0.063846	-0.240729	-9.654428	-0.998973	-0.045085	-0.004498	-0.044956	0.998664	-0.025468	0.005641	-0.025240	-0.999666
724	683887199													0.052301	-0.236723	-9.656953	-0.998973	-0.045080	-0.004495	-0.044951	0.998664	-0.025470	0.005637	-0.025242	-0.999665
725	683895532													0.048275	-0.245385	-9.658097	-0.998973	-0.045077	-0.004502	-0.044949	0.998665	-0.025472	0.005644	-0.025244	-0.999665
726	683903865													0.056121	-0.250628	-9.658520	-0.998973	-0.045082	-0.004502	-0.044953	0.998664	-0.025476	0.005644	-0.025247	-0.999665
727	683912198													0.058145	-0.249778	-9.659100	-0.998973	-0.045080	-0.004498	-0.044952	0.998665	-0.025463	0.005640	-0.025235	-0.999666
728	683920531													0.035900	-0.255056	-9.657146	-0.998973	-0.045086	-0.004500	-0.044957	0.998665	-0.025458	0.005642	-0.025229	-0.999666
729	683928864													0.056679	-0.248862	-9.649329	-0.998973	-0.045082	-0.004496	-0.044954	0.998665	-0.025451	0.005637	-0.025223	-0.999666
730	683937197													0.053131	-0.242317	-9.655851	-0.998973	-0.045084	-0.004491	-0.044955	0.998665	-0.025442	0.005632	-0.025214	-0.999666
731	683945530													0.053124	-0.239821	-9.672933	-0.998973	-0.045085	-0.004498	-0.044957	0.998665	-0.025450	0.005639	-0.025221	-0.999666
732	683953863													0.052151	-0.234964	-9.661187	-0.998972	-0.045098	-0.004507	-0.044969	0.998664	-0.025442	0.005649	-0.025213	-0.999666
733	683962196													0.043554	-0.245471	-9.632676	-0.998973	-0.045093	-0.004504	-0.044964	0.998664	-0.025464	0.005647	-0.025235	-0.999666
734	683970529													0.058825	-0.250235	-9.665429	-0.998973	-0.045079	-0.004500	-0.044950	0.998665	-0.025469	0.005642	-0.025240	-0.999665
735	683978862													0.064097	-0.235529	-9.674077	-0.998973	-0.045077	-0.004502	-0.044949	0.998665	-0.025465	0.005644	-0.025236	-0.999666
736	683987195													0.060642	-0.243225	-9.660157	-0.998974	-0.045072	-0.004503	-0.044944	0.998665	-0.025464	0.005644	-0.025235	-0.999666
737	683995528													0.047974	-0.233326	-9.667904	-0.998974	-0.045073	-0.004500	-0.044945	0.998665	-0.025466	0.005642	-0.025238	-0.999666
738	684003861													0.058446	-0.250500	-9.656123	-0.998974	-0.045064	-0.004506	-0.044935	0.998665	-0.025468	0.005648	-0.025239	-0.999665
739	684012194													0.067151	-0.246916	-9.665995	-0.998974	-0.045062	-0.004504	-0.044933	0.998665	-0.025463	0.005645	-0.025234	-0.999666
740	684020527													0.039076	-0.234070	-9.660036	-0.998974	-0.045061	-0.004502	-0.044932	0.998665	-0.025467	0.005644	-0.025238	-0.999666
741	684028860													0.057588	-0.231259	-9.655516	-0.998974	-0.045068	-0.004502	-0.044940	0.998665	-0.025476	0.005644	-0.025248	-0.999665
742	684037193													0.064368	-0.245013	-9.669177	-0.998975	-0.045039	-0.004505	-0.044910	0.998666	-0.025466	0.005646	-0.025238	-0.999666
743	684045526													0.075813	-0.237117	-9.660715	-0.998976	-0.045022	-0.004496	-0.044894	0.998667	-0.025455	0.005636	-0.025227	-0.999666
744	684053859													0.064755	-0.262695	-9.662382	-0.998976	-0.045016	-0.004509	-0.044887	0.998668	-0.025447	0.005648	-0.025219	-0.999666
745	684062192													0.050156	-0.253311	-9.661996	-0.998975	-0.045032	-0.004528	-0.044903	0.998667	-0.025438	0.005668	-0.025209	-0.999666
746	684070525													0.059254	-0.256780	-9.660787	-0.998976	-0.045020	-0.004542	-0.044890	0.998668	-0.025421	0.005680	-0.025191	-0.999667
747	684078858													0.057723	-0.243690	-9.677095	-0.998975	-0.045030	-0.004547	-0.044901	0.998668	-0.025418	0.005686	-0.025188	-0.999667
748	684087191													0.052437	-0.242638	-9.660522	-0.998976	-0.045022	-0.004557	-0.044892	0.998669	-0.025406	0.005695	-0.025176	-0.999667
749	684095524													0.053303	-0.239713	-9.668304	-0.998975	-0.045028	-0.004563	-0.044898	0.998668	-0.025409	0.005701	-0.025178	-0.999667
750	684103857													0.058446	-0.242896	-9.681215	-0.998975	-0.045045	-0.004554	-0.044915	0.998668	-0.025405	0.005693	-0.025175	-0.999667
751	684112190													0.057902	-0.239298	-9.658277	-0.998975	-0.045039	-0.004554	-0.044909	0.998668	-0.025410	0.005692	-0.025179	-0.999667
752	684120523													0.038797	-0.240250	-9.658920	-0.998975	-0.045026	-0.004558	-0.044896	0.998668	-0.025409	0.005696	-0.025179	-0.999667
753	684128856													0.046365	-0.235093	-9.653270	-0.998975	-0.045026	-0.004563	-0.044896	0.998669	-0.025407	0.005700	-0.025176	-0.999667
754	684137189													0.047008	-0.249198	-9.652011	-0.998975	-0.045032	-0.004559	-0.044902	0.998668	-0.025406	0.005697	-0.025176	-0.999667
755	684145522													0.064197	-0.249756	-9.647254	-0.998975	-0.045036	-0.004552	-0.044906	0.998668	-0.025413	0.005690	-0.025183	-0.999667
756	684153855													0.045371	-0.239635	-9.655244	-0.998975	-0.045033	-0.004550	-0.044904	0.998668	-0.025413	0.005688	-0.025182	-0.999667
757	684162188													0.050857	-0.245886	-9.655072	-0.998975	-0.045035	-0.004538	-0.044905	0.998668	-0.025425	0.005677	-0.025195	-0.999666
758	684170521													0.055020	-0.249398	-9.648799	-0.998975	-0.045030	-0.004545	-0.044900	0.998668	-0.025417	0.005683	-0.025187	-0.999667
759	684178854													0.052860	-0.239420	-9.655565	-0.998975	-0.045041	-0.004524	-0.044912	0.998667	-0.025421	0.005663	-0.025192	-0.999667
760	684187187													0.047001	-0.245185	-9.652369	-0.998976	-0.045026	-0.004515	-0.044897	0.998668	-0.025426	0.005654	-0.025197	-0.999667
761	684195520													0.069712	-0.252503	-9.683455	-0.998975	-0.045032	-0.004517	-0.044903	0.998668	-0.025408	0.005655	-0.025180	-0.999667
762	684203853													0.045585	-0.259684	-9.663941	-0.998976	-0.045008	-0.004513	-0.044879	0.998669	-0.025411	0.005651	-0.025182	-0.999667
763	684212186													0.044133	-0.243118	-9.655565	-0.998977	-0.044994	-0.004511	-0.044865	0.998670	-0.025406	0.005648	-0.025177	-0.999667
764	684220519													0.054498	-0.228519	-9.667511	-0.998977	-0.044987	-0.004513	-0.044858	0.998670	-0.025403	0.005650	-0.025174	-0.999667
765	684228852													0.032338	-0.252353	-9.675544	-0.998977	-0.044994	-0.004516	-0.044865	0.998670	-0.025398	0.005653	-0.025169	-0.999667
766	684237185													0.053696	-0.236638	-9.642977	-0.998977	-0.044990	-0.004499	-0.044862	0.998670	-0.025403	0.005636	-0.025175	-0.999667
767	684245518													0.058582	-0.240800	-9.669185	-0.998977	-0.044989	-0.004504	-0.044861	0.998670	-0.025407	0.005642	-0.025178	-0.999667
768	684253851													0.046079	-0.259419	-9.636031	-0.998979	-0.044955	-0.004497	-0.044827	0.998672	-0.025385	0.005632	-0.025158	-0.999668
769	684262184													0.046207	-0.249727	-9.662455	-0.998979	-0.044952	-0.004499	-0.044824	0.998672	-0.025386	0.005634	-0.025158	-0.999668
770	684270517													0.056801	-0.241015	-9.672725	-0.998980	-0.044934	-0.004499	-0.044806	0.998673	-0.025380	0.005633	-0.025153	-0.999668
771	684278850													0.025808	-0.238562	-9.662447	-0.998980	-0.044936	-0.004508	-0.044808	0.998673	-0.025382	0.005643	-0.025154	-0.999668
772	684287183													0.049741	-0.243998	-9.663420	-0.998980	-0.044941	-0.004501	-0.044813	0.998673	-0.025368	0.005635	-0.025140	-0.999668
773	684295516													0.051922	-0.237024	-9.635445	-0.998979	-0.044945	-0.004508	-0.044817	0.998673	-0.025368	0.005642	-0.025140	-0.999668
774	684303849													0.054111	-0.251465	-9.657347	-0.998980	-0.044940	-0.004490	-0.044812	0.998673	-0.025370	0.005624	-0.025143	-0.999668
775	684312182													0.049877	-0.258861	-9.667912	-0.998980	-0.044936	-0.004488	-0.044808	0.998674	-0.025366	0.005622	-0.025139	-0.999668
776	684320515													0.054491	-0.245765	-9.676445	-0.998980	-0.044930	-0.004498	-0.044802	0.998674	-0.025365	0.005631	-0.025137	-0.999668
777	684328848													0.058196	-0.232424	-9.660036	-0.998980	-0.044921	-0.004497	-0.044793	0.998674	-0.025362	0.005630	-0.025135	-0.999668
778	684337181													0.056286	-0.239491	-9.655994	-0.998980	-0.044923	-0.004507	-0.044795	0.998674	-0.025355	0.005640	-0.025127	-0.999668
779	684345514													0.057130	-0.249541	-9.652761	-0.998980	-0.044930	-0.004519	-0.044801	0.998674	-0.025358	0.005652	-0.025129	-0.999668
780	684353847													0.062552	-0.229478	-9.668877	-0.998980	-0.044931	-0.004527	-0.044802	0.998674	-0.025352	0.005660	-0.025124	-0.999668
781	684362180													0.070491	-0.241237	-9.652418	-0.998980	-0.044929	-0.004518	-0.044801	0.998674	-0.025349	0.005651	-0.025120	-0.999668
782	684370513													0.046450	-0.250042	-9.651954	-0.998981	-0.044911	-0.004522	-0.044782	0.998675	-0.025350	0.005655	-0.025122	-0.999668
783	684378846													0.049562	-0.240872	-9.667768	-0.998980	-0.044918	-0.004518	-0.044790	0.998675	-0.025353	0.005650	-0.025125	-0.999668
784	684387179													0.045013	-0.236423	-9.653213	-0.998981	-0.044903	-0.004520	-0.044775	0.998676	-0.025343	0.005652	-0.025115	-0.999669
785	684395512													0.045556	-0.249169	-9.661366	-0.998981	-0.044913	-0.004517	-0.044784	0.998675	-0.025351	0.005649	-0.025123	-0.999668
786	684403845													0.057630	-0.229048	-9.667933	-0.998981	-0.044911	-0.004512	-0.044783	0.998675	-0.025354	0.005645	-0.025126	-0.999668
787	684412178													0.045642	-0.252245	-9.640745	-0.998980	-0.044917	-0.004531	-0.044788	0.998674	-0.025364	0.005664	-0.025136	-0.999668
788	684420511													0.060427	-0.231602	-9.653663	-0.998981	-0.044897	-0.004525	-0.044769	0.998675	-0.025363	0.005658	-0.025135	-0.999668
789	684428844													0.060334	-0.239835	-9.655851	-0.998981	-0.044896	-0.004515	-0.044768	0.998676	-0.025357	0.005647	-0.025129	-0.999668
790	684437177													0.031430	-0.251208	-9.661710	-0.998982	-0.044895	-0.004514	-0.044767	0.998675	-0.025368	0.005647	-0.025140	-0.999668
791	684445510													0.040707	-0.242767	-9.654572	-0.998982	-0.044891	-0.004525	-0.044762	0.998676	-0.025368	0.005658	-0.025139	-0.999668
792	684453843													0.068803	-0.235357	-9.673390	-0.998982	-0.044877	-0.004534	-0.044748	0.998676	-0.025369	0.005666	-0.025141	-0.999668
793	684462176													0.045971	-0.250943	-9.652504	-0.998982	-0.044877	-0.004528	-0.044749	0.998676	-0.025382	0.005661	-0.025153	-0.999668
794	684470509													0.066879	-0.247431	-9.625874	-0.998984	-0.044848	-0.004530	-0.044719	0.998677	-0.025388	0.005662	-0.025160	-0.999667
795	684478842													0.041200	-0.234077	-9.677439	-0.998984	-0.044847	-0.004526	-0.044718	0.998677	-0.025382	0.005658	-0.025154	-0.999668
796	684487175													0.050578	-0.250507	-9.663426	-0.998983	-0.044852	-0.004522	-0.044723	0.998677	-0.025389	0.005654	-0.025161	-0.999667
797	684495508													0.042659	-0.251079	-9.653791	-0.998983	-0.044851	-0.004525	-0.044723	0.998676	-0.025400	0.005658	-0.025172	-0.999667
798	684503841													0.040499	-0.238232	-9.671874	-0.998983	-0.044851	-0.004536	-0.044721	0.998676	-0.025408	0.005670	-0.025180	-0.999667
799	684512174													0.050979	-0.225830	-9.659221	-0.998983	-0.044853	-0.004536	-0.044723	0.998676	-0.025430	0.005670	-0.025201	-0.999666
800	684520507													0.032867	-0.240028	-9.645272	-0.998983	-0.044853	-0.004545	-0.044724	0.998676	-0.025428	0.005680	-0.025199	-0.999666
801	684528840													0.040235	-0.242868	-9.643592	-0.998983	-0.044851	-0.004559	-0.044721	0.998676	-0.025427	0.005693	-0.025197	-0.999666
802	684537173													0.056708	-0.274590	-9.641346	-0.998983	-0.044860	-0.004549	-0.044730	0.998676	-0.025415	0.005683	-0.025185	-0.999667
803	684545506													0.056772	-0.235944	-9.672675	-0.998983	-0.044860	-0.004539	-0.044731	0.998675	-0.025445	0.005674	-0.025216	-0.999666
804	684553839													0.055299	-0.256286	-9.655823	-0.998983	-0.044850	-0.004530	-0.044721	0.998676	-0.025441	0.005665	-0.025213	-0.999666
805	684562172													0.055749	-0.236809	-9.651703	-0.998983	-0.044857	-0.004527	-0.044728	0.998675	-0.025444	0.005663	-0.025216	-0.999666
806	684570505													0.036251	-0.236988	-9.669277	-0.998984	-0.044844	-0.004531	-0.044715	0.998676	-0.025446	0.005666	-0.025217	-0.999666
807	684578838													0.052452	-0.238183	-9.652884	-0.998984	-0.044848	-0.004529	-0.044719	0.998676	-0.025437	0.005664	-0.025209	-0.999666
808	684587171													0.046300	-0.249105	-9.643992	-0.998984	-0.044836	-0.004522	-0.044707	0.998676	-0.025432	0.005656	-0.025204	-0.999666
809	684595504													0.042888	-0.237789	-9.663727	-0.998984	-0.044836	-0.004524	-0.044707	0.998677	-0.025421	0.005658	-0.025193	-0.999667
810	684603837													0.058939	-0.246129	-9.666481	-0.998984	-0.044836	-0.004525	-0.044707	0.998677	-0.025413	0.005658	-0.025185	-0.999667
811	684612170													0.048575	-0.252424	-9.643026	-0.998984	-0.044844	-0.004533	-0.044715	0.998676	-0.025432	0.005668	-0.025204	-0.999666
812	684620503													0.052323	-0.260929	-9.653785	-0.998984	-0.044849	-0.004514	-0.044720	0.998676	-0.025435	0.005649	-0.025208	-0.999666
813	684628836													0.049719	-0.242181	-9.673569	-0.998983	-0.044857	-0.004522	-0.044728	0.998676	-0.025425	0.005657	-0.025197	-0.999666
814	684637169													0.053882	-0.255585	-9.646639	-0.998983	-0.044857	-0.004512	-0.044728	0.998675	-0.025437	0.005647	-0.025209	-0.999666
815	684645502													0.040521	-0.238240	-9.659707	-0.998983	-0.044867	-0.004529	-0.044737	0.998675	-0.025445	0.005664	-0.025217	-0.999666
816	684653835													0.051028	-0.245214	-9.670364	-0.998983	-0.044864	-0.004519	-0.044735	0.998675	-0.025427	0.005654	-0.025199	-0.999666
817	684662168													0.064225	-0.245936	-9.664571	-0.998983	-0.044859	-0.004523	-0.044730	0.998676	-0.025418	0.005657	-0.025189	-0.999667
818	684670501													0.061064	-0.248761	-9.663856	-0.998984	-0.044849	-0.004522	-0.044720	0.998676	-0.025412	0.005656	-0.025184	-0.999667
819	684678834													0.043239	-0.226888	-9.641418	-0.998984	-0.044850	-0.004515	-0.044721	0.998676	-0.025409	0.005649	-0.025182	-0.999667
820	684687167													0.059719	-0.246194	-9.655988	-0.998984	-0.044839	-0.004500	-0.044710	0.998677	-0.025403	0.005633	-0.025176	-0.999667
821	684695500													0.062587	-0.252910	-9.649457	-0.998984	-0.044844	-0.004510	-0.044715	0.998676	-0.025413	0.005643	-0.025186	-0.999667
822	684703833													0.047194	-0.230322	-9.656095	-0.998984	-0.044838	-0.004525	-0.044710	0.998677	-0.025410	0.005658	-0.025182	-0.999667
823	684712166													0.052245	-0.259691	-9.654486	-0.998984	-0.044838	-0.004546	-0.044708	0.998677	-0.025412	0.005679	-0.025183	-0.999667
824	684720499													0.053696	-0.248396	-9.650795	-0.998984	-0.044838	-0.004532	-0.044708	0.998676	-0.025425	0.005666	-0.025196	-0.999666
825	684728832													0.037131	-0.241895	-9.667082	-0.998984	-0.044837	-0.004530	-0.044708	0.998676	-0.025440	0.005664	-0.025211	-0.999666
826	684737165													0.043547	-0.246101	-9.659507	-0.998983	-0.044855	-0.004538	-0.044725	0.998675	-0.025441	0.005673	-0.025212	-0.999666
827	684745498													0.062215	-0.256243	-9.672496	-0.998983	-0.044860	-0.004522	-0.044731	0.998675	-0.025434	0.005657	-0.025206	-0.999666
828	684753831													0.062366	-0.236230	-9.662633	-0.998984	-0.044848	-0.004510	-0.044719	0.998676	-0.025440	0.005645	-0.025212	-0.999666
829	684762164													0.059676	-0.251380	-9.664285	-0.998983	-0.044857	-0.004513	-0.044728	0.998675	-0.025450	0.005649	-0.025223	-0.999666
830	684770497													0.064612	-0.250865	-9.654278	-0.998983	-0.044864	-0.004516	-0.044736	0.998675	-0.025452	0.005652	-0.025224	-0.999666
