// Start Time: Unknown
// Update Rate: 100.0Hz
//Filter Profile: human (46.1)
// Option Flags: AHS Disabled ICC Disabled
// Firmware Version: 4.0.2
PacketCounter	SampleTimeFine	Year	Month	Day	Second	UTC_Nano	UTC_Year	UTC_Month	UTC_Day	UTC_Hour	UTC_Minute	UTC_Second	UTC_Valid	Acc_X	Acc_Y	Acc_Z	Mat[1][1]	Mat[1][2]	Mat[1][3]	Mat[2][1]	Mat[2][2]	Mat[2][3]	Mat[3][1]	Mat[3][2]	Mat[3][3]
0	677788567													0.000000	0.000000	0.000000	0.002402	-0.890663	0.454657	0.337647	0.428680	0.837991	-0.941270	0.151501	0.301759
1	677796900													-9.363492	1.867796	2.521424	0.002863	-0.889949	0.456052	0.338873	0.429933	0.836853	-0.940828	0.152148	0.302811
2	677805233													-9.230040	1.851306	2.715160	0.003217	-0.889563	0.456801	0.339917	0.430575	0.836099	-0.940450	0.152585	0.303763
3	677813566													-9.152617	1.988912	3.318897	-0.006074	-0.887013	0.461704	0.340725	0.432248	0.834906	-0.940143	0.162385	0.299602
4	677821899													-9.081040	2.198024	3.299022	-0.005790	-0.887017	0.461700	0.341730	0.432156	0.834543	-0.939780	0.162609	0.300619
5	677830232													-9.021574	2.318391	3.180925	-0.012037	-0.883886	0.467547	0.346378	0.434945	0.831171	-0.938018	0.171953	0.300923
6	677838565													-9.058295	2.291188	2.830828	-0.011935	-0.883892	0.467539	0.347385	0.434784	0.830835	-0.937647	0.172332	0.301862
7	677846898													-9.059584	2.217688	2.345173	-0.017870	-0.880869	0.473023	0.355650	0.436557	0.826396	-0.934448	0.182999	0.305480
8	677855231													-8.970091	2.188399	2.549032	-0.018406	-0.881171	0.472439	0.356130	0.435750	0.826615	-0.934255	0.183465	0.305791
9	677863564													-9.147269	2.017263	2.963883	-0.024496	-0.878325	0.477436	0.359663	0.437858	0.823968	-0.932761	0.191900	0.305175
10	677871897													-9.273374	1.854702	2.956081	-0.024845	-0.878703	0.476722	0.360847	0.436837	0.823992	-0.932294	0.192496	0.306224
11	677880230													-9.223959	1.755656	2.760872	-0.028891	-0.876413	0.480693	0.363283	0.438804	0.821874	-0.931231	0.198373	0.305708
12	677888563													-9.303110	1.742750	2.935189	-0.029213	-0.876819	0.479933	0.364480	0.437736	0.821913	-0.930753	0.198937	0.306795
13	677896896													-9.267947	1.897340	3.197766	-0.030832	-0.875118	0.482926	0.365335	0.439858	0.820400	-0.930365	0.201724	0.306149
14	677905229													-9.240724	1.993141	2.995849	-0.031112	-0.875574	0.482081	0.366291	0.438772	0.820554	-0.929980	0.202111	0.307064
15	677913562													-9.272354	1.881135	2.543107	-0.031407	-0.874349	0.484280	0.366723	0.440648	0.819356	-0.929800	0.203331	0.306804
16	677921895													-9.264986	1.818855	2.731995	-0.031730	-0.875053	0.482986	0.367333	0.439202	0.819859	-0.929548	0.203430	0.307500
17	677930228													-9.268588	2.001522	2.820241	-0.031949	-0.874248	0.484428	0.367029	0.440552	0.819270	-0.929661	0.203974	0.306799
18	677938561													-9.330397	1.981857	2.859300	-0.032491	-0.874953	0.483116	0.367474	0.439057	0.819873	-0.929466	0.204170	0.307257
19	677946894													-9.257556	1.859343	2.776374	-0.032755	-0.874327	0.484230	0.366770	0.440174	0.819589	-0.929735	0.204446	0.306259
20	677955227													-9.462329	1.729445	3.149468	-0.033274	-0.875065	0.482861	0.367249	0.438625	0.820205	-0.929527	0.204622	0.306771
21	677963560													-9.128047	1.676781	3.005600	-0.033181	-0.874759	0.483421	0.367076	0.439217	0.819966	-0.929599	0.204659	0.306530
22	677971893													-9.227137	1.633109	2.934302	-0.033559	-0.875848	0.481419	0.368047	0.437009	0.820710	-0.929201	0.204726	0.307688
23	677980226													-9.075436	1.752302	3.071855	-0.032841	-0.875916	0.481344	0.368346	0.437097	0.820529	-0.929109	0.204248	0.308285
24	677988559													-9.136063	1.777722	3.138651	-0.032844	-0.876811	0.479712	0.369607	0.435290	0.820922	-0.928607	0.204268	0.309779
25	677996892													-9.176313	1.686991	2.997768	-0.031807	-0.876842	0.479726	0.369969	0.435548	0.820623	-0.928500	0.203585	0.310550
26	678005225													-9.209218	1.726169	2.889546	-0.031901	-0.877630	0.478275	0.370925	0.433951	0.821037	-0.928115	0.203596	0.311692
27	678013558													-9.307354	1.793014	3.002456	-0.030943	-0.877637	0.478327	0.371225	0.434234	0.820751	-0.928027	0.202964	0.312365
28	678021891													-9.262209	1.681811	3.034081	-0.031146	-0.878371	0.476963	0.372368	0.432646	0.821072	-0.927562	0.203179	0.313602
29	678030224													-9.143179	1.630486	3.034289	-0.030204	-0.878462	0.476856	0.372925	0.432722	0.820779	-0.927370	0.202622	0.314531
30	678038557													-9.010580	1.622301	2.945310	-0.030637	-0.879313	0.475258	0.373865	0.430886	0.821318	-0.926977	0.202845	0.315543
31	678046890													-9.068158	1.571528	3.170522	-0.030014	-0.879376	0.475182	0.373831	0.431020	0.821262	-0.927011	0.202287	0.315801
32	678055223													-9.064552	1.582444	3.125083	-0.030734	-0.879829	0.474295	0.374246	0.429873	0.821675	-0.926820	0.202757	0.316060
33	678063556													-9.172896	1.556033	3.052593	-0.030247	-0.879601	0.474749	0.373951	0.430516	0.821472	-0.926955	0.202380	0.315906
34	678071889													-9.172089	1.598527	2.987834	-0.030911	-0.880183	0.473626	0.374428	0.429152	0.821969	-0.926741	0.202747	0.316300
35	678080222													-9.193561	1.757555	3.080308	-0.030131	-0.880437	0.473206	0.374623	0.428965	0.821977	-0.926687	0.202041	0.316907
36	678088555													-9.166335	1.762953	3.034303	-0.030614	-0.881272	0.471617	0.375743	0.427084	0.822446	-0.926218	0.202385	0.318057
37	678096888													-9.037369	1.689058	3.242292	-0.029903	-0.881687	0.470886	0.376206	0.426528	0.822522	-0.926053	0.201746	0.318941
38	678105221													-9.076873	1.792339	3.368225	-0.030647	-0.882852	0.468651	0.376846	0.424064	0.823503	-0.925769	0.201847	0.319703
39	678113554													-9.286120	1.699819	3.568487	-0.029930	-0.883407	0.467651	0.377066	0.423315	0.823788	-0.925703	0.200991	0.320433
40	678121887													-9.223079	1.550326	3.467900	-0.029967	-0.884181	0.466183	0.378254	0.421676	0.824083	-0.925217	0.201030	0.321809
41	678130220													-9.095862	1.555928	3.210925	-0.028962	-0.884510	0.465622	0.378711	0.421381	0.824024	-0.925062	0.200201	0.322769
42	678138553													-9.168304	1.729264	3.208210	-0.029173	-0.885097	0.464491	0.379166	0.420161	0.824438	-0.924869	0.200170	0.323341
43	678146886													-9.163302	1.885823	3.290813	-0.028308	-0.885156	0.464432	0.379100	0.420401	0.824346	-0.924922	0.199402	0.323662
44	678155219													-9.121110	1.898386	3.353385	-0.028707	-0.885564	0.463629	0.379324	0.419475	0.824715	-0.924819	0.199541	0.323874
45	678163552													-9.188007	1.925045	3.633444	-0.027942	-0.885590	0.463626	0.379457	0.419693	0.824542	-0.924787	0.198966	0.324316
46	678171885													-9.200719	1.878856	3.396667	-0.028307	-0.886187	0.462462	0.380061	0.418360	0.824941	-0.924528	0.199116	0.324963
47	678180218													-9.175570	1.879558	3.175961	-0.027714	-0.886605	0.461696	0.380049	0.417844	0.825209	-0.924551	0.198337	0.325373
48	678188551													-9.249924	1.839719	3.240640	-0.028248	-0.887360	0.460210	0.379860	0.416327	0.826062	-0.924613	0.198150	0.325312
49	678196884													-9.369440	1.693811	3.094934	-0.027829	-0.887759	0.459466	0.379372	0.415876	0.826513	-0.924825	0.197309	0.325218
50	678205217													-9.375779	1.507835	3.151188	-0.028321	-0.888481	0.458039	0.379071	0.414450	0.827367	-0.924934	0.197061	0.325059
51	678213550													-9.301029	1.524711	3.118117	-0.027772	-0.888808	0.457438	0.378662	0.414157	0.827701	-0.925118	0.196202	0.325055
52	678221883													-9.371304	1.494819	3.398414	-0.028038	-0.889605	0.455869	0.378866	0.412565	0.828402	-0.925027	0.195940	0.325474
53	678230216													-9.235393	1.497456	3.382471	-0.027283	-0.890254	0.454647	0.379124	0.411621	0.828754	-0.924944	0.194979	0.326286
54	678238549													-9.208663	1.475967	3.724417	-0.027564	-0.891039	0.453088	0.379396	0.410020	0.829423	-0.924824	0.194763	0.326755
55	678246882													-9.283591	1.412761	3.433177	-0.026750	-0.891224	0.452775	0.379338	0.410008	0.829455	-0.924871	0.193943	0.327107
56	678255215													-9.315376	1.337748	3.187369	-0.026749	-0.891389	0.452449	0.379335	0.409706	0.829606	-0.924873	0.193821	0.327176
57	678263548													-9.365952	1.245277	3.207044	-0.025512	-0.891320	0.452656	0.379236	0.410327	0.829344	-0.924948	0.192822	0.327553
58	678271881													-9.262172	1.274818	3.076748	-0.024996	-0.891634	0.452066	0.379550	0.409883	0.829420	-0.924834	0.192314	0.328174
59	678280214													-9.278157	1.386938	3.011073	-0.023470	-0.891684	0.452049	0.379587	0.410364	0.829166	-0.924858	0.191052	0.328840
60	678288547													-9.227014	1.491693	2.811319	-0.023161	-0.891938	0.451563	0.379642	0.410003	0.829319	-0.924843	0.190641	0.329122
61	678296880													-9.178600	1.604729	3.019921	-0.022075	-0.891973	0.451549	0.379170	0.410446	0.829316	-0.925064	0.189521	0.329148
62	678305213													-9.103002	1.766489	3.223926	-0.022113	-0.892186	0.451126	0.378858	0.410103	0.829628	-0.925191	0.189258	0.328943
63	678313546													-8.980907	1.893679	3.160192	-0.021301	-0.892062	0.451410	0.378064	0.410798	0.829646	-0.925534	0.188334	0.328506
64	678321879													-8.977975	1.918541	2.937869	-0.021642	-0.892009	0.451500	0.377116	0.410963	0.829996	-0.925913	0.188230	0.327497
65	678330212													-9.115585	1.837837	2.946384	-0.021195	-0.891848	0.451838	0.375800	0.411690	0.830232	-0.926458	0.187398	0.326431
66	678338545													-9.095962	1.848420	3.020039	-0.021594	-0.892014	0.451493	0.375010	0.411398	0.830734	-0.926769	0.187253	0.325630
67	678346878													-9.036636	1.995560	3.109889	-0.021390	-0.892138	0.451256	0.374048	0.411439	0.831148	-0.927163	0.186570	0.324902
68	678355211													-9.081012	2.080749	3.196752	-0.021985	-0.892541	0.450429	0.373364	0.410611	0.831864	-0.927424	0.186463	0.324215
69	678363544													-9.172024	2.128469	3.279586	-0.021775	-0.892778	0.449970	0.372721	0.410381	0.832266	-0.927688	0.185836	0.323821
70	678371877													-9.099021	1.977501	3.159238	-0.022034	-0.893081	0.449355	0.372652	0.409737	0.832614	-0.927710	0.185799	0.323780
71	678380210													-9.069497	1.885397	2.754092	-0.021531	-0.893258	0.449028	0.372422	0.409641	0.832764	-0.927814	0.185158	0.323849
72	678388543													-8.988245	1.912022	2.816425	-0.021693	-0.893751	0.448038	0.372119	0.408726	0.833349	-0.927931	0.184801	0.323716
73	678396876													-9.027446	1.984901	3.199379	-0.021463	-0.894145	0.447262	0.371292	0.408242	0.833955	-0.928268	0.183964	0.323227
74	678405209													-9.119965	2.080034	3.254212	-0.021778	-0.894520	0.446497	0.370648	0.407553	0.834578	-0.928518	0.183669	0.322676
75	678413542													-9.134380	2.075021	2.909225	-0.021686	-0.894566	0.446409	0.369593	0.407709	0.834970	-0.928941	0.183096	0.321783
76	678421875													-9.064849	1.980777	2.877829	-0.022074	-0.894767	0.445987	0.368516	0.407402	0.835595	-0.929359	0.182798	0.320743
77	678430208													-9.053392	1.938574	3.013774	-0.022030	-0.894857	0.445809	0.367284	0.407492	0.836094	-0.929848	0.182158	0.319689
78	678438541													-9.103352	1.917801	3.141714	-0.022302	-0.895110	0.445287	0.366558	0.407059	0.836623	-0.930128	0.181881	0.319032
79	678446874													-9.118682	1.924112	3.313586	-0.022290	-0.895304	0.444898	0.366060	0.406797	0.836969	-0.930324	0.181516	0.318668
80	678455207													-9.061506	1.915594	3.357894	-0.022761	-0.895735	0.444004	0.365701	0.405880	0.837570	-0.930454	0.181437	0.318333
81	678463540													-9.127253	1.879691	2.994023	-0.022981	-0.895979	0.443500	0.365062	0.405463	0.838051	-0.930699	0.181164	0.317770
82	678471873													-9.230899	1.779709	2.812076	-0.023425	-0.896443	0.442539	0.364497	0.404532	0.838747	-0.930910	0.180952	0.317274
83	678480206													-9.290509	1.758107	2.865034	-0.023347	-0.896840	0.441738	0.364038	0.403896	0.839252	-0.931092	0.180403	0.317054
84	678488539													-9.328784	1.636758	2.832757	-0.023360	-0.897380	0.440640	0.363923	0.402887	0.839787	-0.931136	0.179977	0.317166
85	678496872													-9.267886	1.675543	2.795847	-0.023004	-0.897739	0.439927	0.363856	0.402346	0.840075	-0.931171	0.179395	0.317392
86	678505205													-9.228360	1.808902	2.546961	-0.022886	-0.898185	0.439022	0.364005	0.401509	0.840411	-0.931116	0.179040	0.317755
87	678513538													-9.194882	1.889665	2.494687	-0.022595	-0.898398	0.438600	0.364092	0.401190	0.840526	-0.931089	0.178683	0.318035
88	678521871													-9.133801	1.896198	2.601932	-0.022695	-0.898788	0.437797	0.364345	0.400357	0.840813	-0.930987	0.178591	0.318383
89	678530204													-9.213222	1.836679	2.816774	-0.022776	-0.899091	0.437169	0.364447	0.399725	0.841070	-0.930946	0.178481	0.318567
90	678538537													-9.156079	1.869177	3.044869	-0.023157	-0.899553	0.436197	0.364919	0.398603	0.841397	-0.930751	0.178661	0.319034
91	678546870													-9.045160	1.832236	3.181220	-0.023455	-0.899853	0.435563	0.365212	0.397858	0.841623	-0.930629	0.178813	0.319305
92	678555203													-9.132610	1.799002	3.019345	-0.023982	-0.900430	0.434339	0.365835	0.396424	0.842029	-0.930371	0.179090	0.319902
93	678563536													-9.214669	1.837393	2.988902	-0.024314	-0.900929	0.433285	0.366317	0.395240	0.842376	-0.930172	0.179201	0.320416
94	678571869													-9.248621	1.883782	2.936202	-0.024937	-0.901519	0.432021	0.366822	0.393759	0.842850	-0.929957	0.179493	0.320878
95	678580202													-9.396041	1.903386	2.721377	-0.025532	-0.901912	0.431165	0.367021	0.392729	0.843243	-0.929862	0.179776	0.320994
96	678588535													-9.376909	1.868465	2.658314	-0.026303	-0.902546	0.429790	0.367433	0.391114	0.843815	-0.929678	0.180114	0.321337
97	678596868													-9.269017	1.851875	2.608950	-0.027018	-0.903134	0.428509	0.367615	0.389650	0.844412	-0.929585	0.180341	0.321478
98	678605201													-9.177603	1.830757	2.657734	-0.028033	-0.904008	0.426596	0.367935	0.387471	0.845275	-0.929429	0.180655	0.321754
99	678613534													-9.188426	1.829313	2.670958	-0.029060	-0.904645	0.425174	0.367970	0.385802	0.846023	-0.929383	0.181037	0.321671
100	678621867													-9.154992	1.725505	2.819127	-0.030428	-0.905500	0.423254	0.367953	0.383567	0.847046	-0.929347	0.181512	0.321510
101	678630200													-9.218746	1.658091	3.240907	-0.031716	-0.906227	0.421600	0.367708	0.381650	0.848018	-0.929400	0.181921	0.321122
102	678638533													-9.145386	1.632360	3.474121	-0.032946	-0.907045	0.419742	0.367998	0.379457	0.848876	-0.929243	0.182431	0.321289
103	678646866													-9.117027	1.657483	3.195108	-0.033980	-0.907581	0.418500	0.367987	0.377962	0.849547	-0.929210	0.182871	0.321135
104	678655199													-9.092849	1.710632	3.028540	-0.035120	-0.908337	0.416761	0.367967	0.375970	0.850440	-0.929176	0.183221	0.321034
105	678663532													-9.126665	1.750508	2.988756	-0.036036	-0.908971	0.415298	0.367480	0.374399	0.851342	-0.929333	0.183293	0.320536
106	678671865													-9.159188	1.726355	2.904279	-0.036988	-0.909871	0.413239	0.367160	0.372226	0.852433	-0.929422	0.183255	0.320300
107	678680198													-9.170656	1.688865	2.810523	-0.037757	-0.910585	0.411594	0.366496	0.370567	0.853440	-0.929653	0.183070	0.319734
108	678688531													-9.230488	1.671931	2.887778	-0.038668	-0.911509	0.409458	0.365902	0.368388	0.854638	-0.929850	0.182869	0.319278
109	678696864													-9.243196	1.641181	3.086488	-0.039393	-0.912288	0.407651	0.365073	0.366624	0.855750	-0.930145	0.182533	0.318609
110	678705197													-9.247229	1.723985	3.253899	-0.040375	-0.913365	0.405134	0.364474	0.364064	0.857098	-0.930338	0.182266	0.318199
111	678713530													-9.285619	1.841908	3.350912	-0.041249	-0.914298	0.402937	0.363694	0.361875	0.858355	-0.930605	0.181952	0.317597
112	678721863													-9.258498	1.834569	3.546854	-0.042330	-0.915363	0.400399	0.363233	0.359235	0.859658	-0.930736	0.181827	0.317284
113	678730196													-9.231133	1.673656	3.318281	-0.043185	-0.916056	0.398720	0.362676	0.357493	0.860619	-0.930914	0.181772	0.316793
114	678738529													-9.311253	1.557998	3.250932	-0.044166	-0.916641	0.397264	0.362401	0.355866	0.861409	-0.930975	0.182014	0.316474
115	678746862													-9.342416	1.483835	3.197334	-0.044816	-0.916887	0.396623	0.362141	0.355106	0.861832	-0.931045	0.182257	0.316128
116	678755195													-9.350374	1.496123	3.256211	-0.045572	-0.917273	0.395644	0.361964	0.353979	0.862369	-0.931077	0.182509	0.315888
117	678763528													-9.531192	1.544103	3.252943	-0.045954	-0.917344	0.395433	0.361629	0.353725	0.862614	-0.931189	0.182641	0.315483
118	678771861													-9.509870	1.595932	3.066542	-0.046329	-0.917477	0.395083	0.361578	0.353286	0.862815	-0.931190	0.182826	0.315372
119	678780194													-9.346717	1.597615	2.876020	-0.046417	-0.917359	0.395345	0.361044	0.353610	0.862906	-0.931393	0.182791	0.314794
120	678788527													-9.304512	1.548548	2.846930	-0.046729	-0.917496	0.394990	0.360331	0.353316	0.863324	-0.931653	0.182670	0.314093
121	678796860													-9.262702	1.539605	2.949415	-0.046739	-0.917579	0.394796	0.359411	0.353311	0.863710	-0.932008	0.182263	0.313275
122	678805193													-9.292695	1.610108	2.930022	-0.046955	-0.917927	0.393960	0.358663	0.352602	0.864311	-0.932285	0.181882	0.312670
123	678813526													-9.414907	1.755434	3.062728	-0.046973	-0.918170	0.393393	0.357850	0.352221	0.864803	-0.932597	0.181398	0.312022
124	678821859													-9.391142	1.902711	3.043692	-0.047150	-0.918616	0.392328	0.357487	0.351232	0.865355	-0.932727	0.181054	0.311833
125	678830192													-9.301500	1.859726	2.757451	-0.047130	-0.918866	0.391746	0.356916	0.350801	0.865766	-0.932947	0.180624	0.311424
126	678838525													-9.307453	1.715058	2.767085	-0.047323	-0.919306	0.390689	0.356481	0.349828	0.866338	-0.933103	0.180271	0.311160
127	678846858													-9.247215	1.630887	2.856194	-0.047214	-0.919585	0.390045	0.355978	0.349352	0.866737	-0.933301	0.179770	0.310858
128	678855191													-9.200912	1.534410	2.912814	-0.047346	-0.920037	0.388960	0.355721	0.348338	0.867250	-0.933392	0.179422	0.310784
129	678863524													-9.123538	1.454594	3.012010	-0.047259	-0.920293	0.388364	0.355399	0.347865	0.867572	-0.933519	0.179025	0.310632
130	678871857													-9.050858	1.556031	3.132723	-0.047453	-0.920632	0.387538	0.355256	0.347053	0.867956	-0.933564	0.178863	0.310591
131	678880190													-8.955453	1.701652	3.111040	-0.047495	-0.920655	0.387476	0.354665	0.347095	0.868181	-0.933786	0.178658	0.310039
132	678888523													-9.007892	1.725632	2.912808	-0.047795	-0.920754	0.387206	0.353972	0.346879	0.868550	-0.934034	0.178572	0.309342
133	678896856													-9.057747	1.685688	2.942490	-0.047881	-0.920698	0.387327	0.352899	0.347171	0.868870	-0.934436	0.178290	0.308290
134	678905189													-9.081751	1.692735	3.114767	-0.048190	-0.920822	0.386995	0.352017	0.346930	0.869324	-0.934752	0.178122	0.307426
135	678913522													-9.064167	1.771105	3.305116	-0.048288	-0.920728	0.387207	0.351124	0.347269	0.869550	-0.935083	0.177947	0.306520
136	678921855													-9.046004	1.873146	3.309138	-0.048480	-0.920649	0.387368	0.350818	0.347421	0.869612	-0.935188	0.178054	0.306138
137	678930188													-9.072689	2.003887	3.135914	-0.048405	-0.920277	0.388262	0.350515	0.348346	0.869364	-0.935306	0.178173	0.305709
138	678938521													-9.197331	2.066226	3.098634	-0.048416	-0.919986	0.388950	0.350599	0.348976	0.869078	-0.935274	0.178442	0.305650
139	678946854													-9.210953	1.990230	2.965994	-0.048196	-0.919621	0.389839	0.350678	0.349869	0.868687	-0.935255	0.178575	0.305629
140	678955187													-9.256938	1.915031	2.800674	-0.048221	-0.919536	0.390037	0.350829	0.350019	0.868565	-0.935197	0.178720	0.305721
141	678963520													-9.378924	1.853929	2.623402	-0.048187	-0.919463	0.390212	0.350708	0.350218	0.868534	-0.935244	0.178702	0.305588
142	678971853													-9.356800	1.763350	2.585341	-0.048512	-0.919696	0.389623	0.350480	0.349605	0.868873	-0.935313	0.178706	0.305375
143	678980186													-9.352065	1.766612	2.639147	-0.048766	-0.919894	0.389123	0.349956	0.349154	0.869265	-0.935496	0.178567	0.304896
144	678988519													-9.333867	1.811847	2.680487	-0.049284	-0.920389	0.387886	0.349472	0.347919	0.869955	-0.935650	0.178430	0.304503
145	678996852													-9.322004	1.784380	2.722970	-0.049634	-0.920864	0.386712	0.348836	0.346822	0.870648	-0.935868	0.178113	0.304017
146	679005185													-9.223707	1.690168	2.717709	-0.050139	-0.921582	0.384932	0.348259	0.345093	0.871565	-0.936057	0.177755	0.303647
147	679013518													-9.162185	1.745089	2.904897	-0.050466	-0.922117	0.383606	0.347409	0.343900	0.872376	-0.936355	0.177294	0.302997
148	679021851													-9.102857	1.735205	3.026369	-0.050980	-0.922652	0.382249	0.346588	0.342614	0.873208	-0.936631	0.176999	0.302314
149	679030184													-9.108194	1.647298	3.066871	-0.051342	-0.922856	0.381707	0.345571	0.342183	0.873780	-0.936987	0.176769	0.301344
150	679038517													-9.190147	1.697275	3.181942	-0.051784	-0.923133	0.380976	0.344776	0.341507	0.874358	-0.937256	0.176629	0.300590
151	679046850													-9.204573	1.748834	3.196375	-0.052049	-0.923224	0.380720	0.343938	0.341342	0.874753	-0.937549	0.176474	0.299765
152	679055183													-9.301591	1.759130	3.088178	-0.052489	-0.923480	0.380038	0.343228	0.340695	0.875284	-0.937784	0.176382	0.299082
153	679063516													-9.363721	1.759961	2.901256	-0.052805	-0.923594	0.379718	0.342395	0.340453	0.875704	-0.938071	0.176255	0.298256
154	679071849													-9.347321	1.735420	2.805839	-0.053373	-0.923890	0.378918	0.341650	0.339663	0.876302	-0.938311	0.176228	0.297518
155	679080182													-9.301858	1.639121	2.735027	-0.053879	-0.924084	0.378373	0.340786	0.339156	0.876834	-0.938596	0.176187	0.296642
156	679088515													-9.277761	1.537218	2.747454	-0.054689	-0.924508	0.377219	0.339978	0.337970	0.877605	-0.938842	0.176241	0.295829
157	679096848													-9.296571	1.482255	2.828444	-0.055468	-0.924867	0.376223	0.339020	0.336972	0.878360	-0.939143	0.176268	0.294858
158	679105181													-9.302654	1.476505	2.892410	-0.056476	-0.925411	0.374734	0.338161	0.335419	0.879284	-0.939392	0.176379	0.293995
159	679113514													-9.233270	1.455770	2.994119	-0.057356	-0.925750	0.373761	0.337189	0.334415	0.880040	-0.939688	0.176504	0.292972
160	679121847													-9.205359	1.453674	3.081214	-0.058379	-0.926145	0.372621	0.336280	0.333199	0.880848	-0.939951	0.176728	0.291993
161	679130180													-9.168302	1.450423	3.108153	-0.059187	-0.926258	0.372215	0.335232	0.332771	0.881409	-0.940275	0.176947	0.290816
162	679138513													-9.180114	1.477860	3.094785	-0.060123	-0.926303	0.371953	0.334301	0.332422	0.881895	-0.940547	0.177366	0.289678
163	679146846													-9.136798	1.496037	3.052026	-0.060822	-0.925990	0.372616	0.333329	0.333033	0.882032	-0.940847	0.177851	0.288404
164	679155179													-9.064189	1.512592	3.024251	-0.061642	-0.925645	0.373340	0.332532	0.333635	0.882106	-0.941075	0.178522	0.287241
165	679163512													-9.116863	1.560015	2.995697	-0.062149	-0.925047	0.374733	0.331835	0.334948	0.881870	-0.941288	0.179157	0.286146
166	679171845													-9.174787	1.573424	2.987104	-0.062775	-0.924587	0.375763	0.331463	0.335820	0.881679	-0.941377	0.179899	0.285386
167	679180178													-9.220699	1.614703	2.992707	-0.063124	-0.924086	0.376935	0.331227	0.336882	0.881362	-0.941437	0.180486	0.284817
168	679188511													-9.323993	1.647142	2.958234	-0.063598	-0.923811	0.377531	0.331209	0.337317	0.881202	-0.941412	0.181084	0.284522
169	679196844													-9.398015	1.671196	2.918387	-0.063820	-0.923486	0.378287	0.331213	0.337974	0.880949	-0.941395	0.181516	0.284301
170	679205177													-9.453199	1.707362	2.853339	-0.064217	-0.923326	0.378611	0.331290	0.338153	0.880851	-0.941341	0.181996	0.284174
171	679213510													-9.414171	1.792861	2.804960	-0.064442	-0.923059	0.379222	0.331214	0.338686	0.880675	-0.941352	0.182356	0.283905
172	679221843													-9.380644	1.866490	2.803231	-0.064847	-0.922951	0.379415	0.331139	0.338768	0.880672	-0.941351	0.182748	0.283657
173	679230176													-9.349284	1.918305	2.821354	-0.065076	-0.922785	0.379781	0.330999	0.339079	0.880605	-0.941384	0.183013	0.283375
174	679238509													-9.307979	1.909233	2.831942	-0.065477	-0.922759	0.379775	0.330925	0.338973	0.880674	-0.941383	0.183341	0.283169
175	679246842													-9.298196	1.891840	2.834282	-0.065702	-0.922660	0.379976	0.330811	0.339122	0.880659	-0.941407	0.183561	0.282945
176	679255175													-9.319268	1.842613	2.857636	-0.066082	-0.922672	0.379880	0.330809	0.338922	0.880737	-0.941381	0.183869	0.282832
177	679263508													-9.396492	1.784539	2.837372	-0.066270	-0.922565	0.380107	0.330820	0.339083	0.880671	-0.941364	0.184109	0.282732
178	679271841													-9.417947	1.734611	2.842974	-0.066598	-0.922554	0.380077	0.330967	0.338931	0.880674	-0.941289	0.184444	0.282763
179	679280174													-9.428878	1.725273	2.815795	-0.066731	-0.922411	0.380402	0.331141	0.339169	0.880517	-0.941219	0.184725	0.282814
180	679288507													-9.432291	1.688322	2.805590	-0.066998	-0.922315	0.380588	0.331416	0.339215	0.880396	-0.941103	0.185118	0.282943
181	679296840													-9.383929	1.660381	2.757262	-0.067074	-0.922065	0.381180	0.331643	0.339714	0.880118	-0.941017	0.185449	0.283010
182	679305173													-9.280070	1.596400	2.776998	-0.067289	-0.921971	0.381369	0.331909	0.339781	0.879992	-0.940909	0.185793	0.283146
183	679313506													-9.191518	1.615491	2.806468	-0.067307	-0.921840	0.381681	0.332151	0.340025	0.879806	-0.940822	0.185993	0.283304
184	679321839													-9.167184	1.721411	2.771927	-0.067449	-0.921823	0.381697	0.332475	0.339936	0.879718	-0.940697	0.186240	0.283555
185	679330172													-9.246280	1.822977	2.700496	-0.067431	-0.921749	0.381879	0.332741	0.340062	0.879569	-0.940604	0.186377	0.283773
186	679338505													-9.291044	1.869080	2.646794	-0.067605	-0.921789	0.381753	0.332985	0.339843	0.879561	-0.940506	0.186580	0.283967
187	679346838													-9.270860	1.861377	2.582114	-0.067669	-0.921745	0.381847	0.333119	0.339888	0.879493	-0.940454	0.186715	0.284050
188	679355171													-9.334064	1.850110	2.584640	-0.067980	-0.921824	0.381602	0.333155	0.339557	0.879607	-0.940418	0.186929	0.284027
189	679363504													-9.344114	1.836434	2.615454	-0.068162	-0.921858	0.381487	0.333087	0.339409	0.879690	-0.940429	0.187030	0.283924
190	679371837													-9.325039	1.885719	2.736877	-0.068510	-0.921980	0.381129	0.333007	0.338983	0.879884	-0.940432	0.187200	0.283802
191	679380170													-9.285922	1.941069	2.806799	-0.068774	-0.922002	0.381028	0.332780	0.338856	0.880019	-0.940493	0.187321	0.283520
192	679388503													-9.289405	1.977649	2.857064	-0.069181	-0.922174	0.380537	0.332670	0.338291	0.880278	-0.940502	0.187492	0.283376
193	679396836													-9.318798	1.999919	2.880662	-0.069411	-0.922319	0.380145	0.332706	0.337844	0.880436	-0.940473	0.187588	0.283411
194	679405169													-9.309798	1.958050	2.824688	-0.069759	-0.922473	0.379706	0.332968	0.337273	0.880556	-0.940354	0.187856	0.283626
195	679413502													-9.297723	1.877340	2.823614	-0.069894	-0.922451	0.379735	0.333361	0.337183	0.880442	-0.940205	0.188127	0.283942
196	679421835													-9.332128	1.831438	2.779644	-0.070211	-0.922438	0.379708	0.333800	0.336978	0.880354	-0.940026	0.188557	0.284250
197	679430168													-9.350985	1.824861	2.745434	-0.070417	-0.922313	0.379975	0.334185	0.337095	0.880163	-0.939873	0.188960	0.284486
198	679438501													-9.326789	1.798075	2.693777	-0.070703	-0.922292	0.379971	0.334728	0.336900	0.880031	-0.939659	0.189408	0.284897
199	679446834													-9.289709	1.840239	2.709968	-0.070727	-0.922197	0.380198	0.335444	0.336965	0.879734	-0.939401	0.189756	0.285513
200	679455167													-9.264797	1.746209	2.695518	-0.070907	-0.922265	0.380000	0.336200	0.336571	0.879596	-0.939118	0.190126	0.286199
201	679463500													-9.252400	1.622120	2.517825	-0.071011	-0.922219	0.380090	0.336561	0.336554	0.879465	-0.938980	0.190376	0.286484
202	679471833													-9.319041	1.533182	2.446038	-0.071393	-0.922299	0.379826	0.336599	0.336183	0.879592	-0.938938	0.190646	0.286443
203	679480166													-9.432892	1.538743	2.593553	-0.071545	-0.922335	0.379709	0.336719	0.336002	0.879615	-0.938883	0.190787	0.286529
204	679488499													-9.345682	1.614524	2.594876	-0.071760	-0.922444	0.379404	0.337057	0.335580	0.879647	-0.938745	0.191005	0.286835
205	679496832													-9.316364	1.679174	2.585235	-0.071837	-0.922473	0.379319	0.337220	0.335444	0.879636	-0.938681	0.191105	0.286979
206	679505165													-9.236340	1.677373	2.728423	-0.072114	-0.922589	0.378984	0.337238	0.335040	0.879783	-0.938653	0.191253	0.286971
207	679513498													-9.257713	1.627804	2.856178	-0.072260	-0.922586	0.378965	0.337111	0.335005	0.879845	-0.938688	0.191331	0.286806
208	679521831													-9.264565	1.613788	2.839786	-0.072556	-0.922631	0.378798	0.336942	0.334794	0.879990	-0.938726	0.191482	0.286581
209	679530164													-9.267673	1.659326	2.757324	-0.072691	-0.922628	0.378778	0.336516	0.334823	0.880142	-0.938868	0.191444	0.286141
210	679538497													-9.303517	1.785133	2.821936	-0.072836	-0.922753	0.378446	0.336238	0.334521	0.880363	-0.938956	0.191370	0.285899
211	679546830													-9.242540	1.894632	2.710628	-0.072712	-0.922720	0.378550	0.335981	0.334708	0.880391	-0.939058	0.191200	0.285679
212	679555163													-9.226211	1.940952	2.642995	-0.072671	-0.922597	0.378859	0.335854	0.335041	0.880312	-0.939106	0.191214	0.285510
213	679563496													-9.215110	1.953135	2.623935	-0.072443	-0.922300	0.379624	0.335640	0.335881	0.880074	-0.939201	0.191172	0.285229
214	679571829													-9.237717	1.930057	2.638432	-0.072405	-0.922069	0.380192	0.335436	0.336475	0.879924	-0.939276	0.191241	0.284933
215	679580162													-9.235038	1.885792	2.651065	-0.072240	-0.921711	0.381090	0.335059	0.337457	0.879692	-0.939424	0.191237	0.284450
216	679588495													-9.258075	1.907178	2.718881	-0.072258	-0.921473	0.381662	0.334653	0.338080	0.879607	-0.939567	0.191283	0.283945
217	679596828													-9.273382	1.951409	2.775522	-0.072151	-0.921384	0.381897	0.334311	0.338405	0.879613	-0.939697	0.191137	0.283612
218	679605161													-9.230671	2.004703	2.781528	-0.072121	-0.921551	0.381501	0.334344	0.338028	0.879745	-0.939688	0.191001	0.283736
219	679613494													-9.132775	2.061374	2.809479	-0.071902	-0.921737	0.381092	0.334270	0.337716	0.879893	-0.939731	0.190653	0.283826
220	679621827													-9.128826	2.152545	2.676269	-0.071905	-0.921903	0.380688	0.333941	0.337397	0.880140	-0.939848	0.190414	0.283600
221	679630160													-9.141968	2.075348	2.494621	-0.072022	-0.921964	0.380521	0.332944	0.337405	0.880515	-0.940192	0.190108	0.282662
222	679638493													-9.170491	1.980135	2.515102	-0.072362	-0.922097	0.380133	0.331650	0.337199	0.881082	-0.940623	0.189828	0.281413
223	679646826													-9.166985	1.922837	2.729702	-0.072547	-0.922203	0.379841	0.330306	0.337137	0.881610	-0.941082	0.189422	0.280150
224	679655159													-9.187598	1.900927	2.810540	-0.072685	-0.922390	0.379359	0.329220	0.336856	0.882124	-0.941452	0.189009	0.279185
225	679663492													-9.166137	1.842991	2.734845	-0.072705	-0.922494	0.379102	0.328099	0.336829	0.882552	-0.941841	0.188549	0.278181
226	679671825													-9.204804	1.775682	2.665306	-0.072685	-0.922644	0.378741	0.327239	0.336661	0.882935	-0.942142	0.188115	0.277454
227	679680158													-9.200137	1.709895	2.567203	-0.072408	-0.922748	0.378541	0.326427	0.336710	0.883217	-0.942445	0.187518	0.276829
228	679688491													-9.243567	1.715634	2.626202	-0.072216	-0.923064	0.377806	0.325574	0.336229	0.883715	-0.942755	0.186822	0.276244
229	679696824													-9.328309	1.789454	2.876675	-0.071889	-0.923444	0.376938	0.324545	0.335693	0.884297	-0.943134	0.185905	0.275567
230	679705157													-9.433014	1.848016	2.940393	-0.071632	-0.923942	0.375765	0.323540	0.334839	0.884989	-0.943499	0.184969	0.274946
231	679713490													-9.423716	1.898078	2.899438	-0.071262	-0.924264	0.375043	0.322524	0.334449	0.885507	-0.943875	0.184063	0.274264
232	679721823													-9.340793	1.945115	2.575515	-0.071060	-0.924556	0.374363	0.321508	0.334051	0.886026	-0.944237	0.183321	0.273515
233	679730156													-9.368303	1.809073	2.447651	-0.070749	-0.924771	0.373890	0.320305	0.333917	0.886512	-0.944669	0.182479	0.272585
234	679738489													-9.462732	1.757284	2.639090	-0.070359	-0.925162	0.372994	0.319514	0.333319	0.887023	-0.944966	0.181587	0.272151
235	679746822													-9.411036	1.771834	2.377741	-0.069833	-0.925547	0.372138	0.318787	0.332782	0.887486	-0.945250	0.180609	0.271812
236	679755155													-9.393217	1.706609	2.251081	-0.069518	-0.926060	0.370917	0.317747	0.331896	0.888190	-0.945624	0.179603	0.271180
237	679763488													-9.444159	1.738232	2.526369	-0.069231	-0.926484	0.369910	0.316431	0.331258	0.888898	-0.946086	0.178591	0.270235
238	679771821													-9.428081	1.833558	2.490691	-0.069065	-0.926753	0.369268	0.315103	0.330937	0.889489	-0.946541	0.177790	0.269167
239	679780154													-9.385042	1.641195	2.413755	-0.068719	-0.926825	0.369151	0.313433	0.331232	0.889969	-0.947121	0.176862	0.267736
240	679788487													-9.461793	1.497856	2.642507	-0.068287	-0.926930	0.368967	0.311911	0.331456	0.890420	-0.947654	0.175889	0.266486
241	679796820													-9.466974	1.417794	2.444107	-0.067562	-0.926915	0.369140	0.310425	0.332092	0.890703	-0.948194	0.174768	0.265300
242	679805153													-9.542681	1.293533	2.376727	-0.066848	-0.927146	0.368689	0.308982	0.332115	0.891195	-0.948716	0.173493	0.264271
243	679813486													-9.620758	1.262506	2.628911	-0.065931	-0.927475	0.368026	0.307582	0.331977	0.891731	-0.949235	0.171991	0.263387
244	679821819													-9.597969	1.276077	2.856819	-0.065013	-0.927960	0.366965	0.306417	0.331412	0.892342	-0.949675	0.170458	0.262797
245	679830152													-9.519356	1.383756	2.793511	-0.063894	-0.928430	0.365972	0.305273	0.330959	0.892902	-0.950119	0.168772	0.262278
246	679838485													-9.509923	1.445165	2.623127	-0.062799	-0.928945	0.364853	0.304212	0.330360	0.893486	-0.950532	0.167102	0.261850
247	679846818													-9.446284	1.463114	2.682309	-0.061577	-0.929283	0.364199	0.302977	0.330271	0.893938	-0.951006	0.165390	0.261215
248	679855151													-9.414492	1.452889	2.460900	-0.060437	-0.929441	0.363986	0.301777	0.330574	0.894232	-0.951461	0.163888	0.260505
249	679863484													-9.415148	1.372221	2.109984	-0.059201	-0.929455	0.364155	0.300224	0.331328	0.894476	-0.952030	0.162282	0.259429
250	679871817													-9.510498	1.334751	2.374312	-0.058033	-0.929736	0.363624	0.298746	0.331373	0.894954	-0.952566	0.160568	0.258525
251	679880150													-9.497123	1.431247	2.652992	-0.056769	-0.930135	0.362803	0.297463	0.331128	0.895472	-0.953044	0.158756	0.257883
252	679888483													-9.527920	1.422311	2.522602	-0.055685	-0.930563	0.361872	0.296330	0.330701	0.896005	-0.953461	0.157127	0.257339
253	679896816													-9.545221	1.326399	2.124587	-0.054463	-0.930882	0.361237	0.295251	0.330584	0.896405	-0.953866	0.155476	0.256839
254	679905149													-9.464286	1.243247	2.172108	-0.053369	-0.931346	0.360202	0.293988	0.330075	0.897007	-0.954318	0.153767	0.256189
255	679913482													-9.501534	1.141971	2.552706	-0.052074	-0.931740	0.359372	0.292472	0.329852	0.897584	-0.954855	0.151847	0.255332
256	679921815													-9.525513	1.139817	2.611172	-0.050811	-0.932037	0.358784	0.290970	0.329848	0.898074	-0.955382	0.150028	0.254435
257	679930148													-9.547521	1.189453	2.586105	-0.049427	-0.932072	0.358885	0.289054	0.330598	0.898417	-0.956036	0.148143	0.253079
258	679938481													-9.607282	1.167763	2.488963	-0.048205	-0.932146	0.358860	0.287053	0.331193	0.898839	-0.956701	0.146340	0.251610
259	679946814													-9.599412	1.194684	2.547673	-0.046865	-0.932111	0.359129	0.284903	0.332117	0.899182	-0.957410	0.144457	0.249997
260	679955147													-9.572124	1.275181	2.413283	-0.045747	-0.932061	0.359402	0.282821	0.332974	0.899523	-0.958081	0.142797	0.248373
261	679963480													-9.579499	1.249583	2.284544	-0.044505	-0.932006	0.359701	0.280713	0.333884	0.899845	-0.958759	0.141020	0.246767
262	679971813													-9.525076	1.099105	2.289167	-0.043293	-0.932093	0.359623	0.279033	0.334355	0.900193	-0.959305	0.139319	0.245609
263	679980146													-9.534921	0.985917	2.232719	-0.041839	-0.932120	0.359724	0.277534	0.335027	0.900406	-0.959804	0.137507	0.244678
264	679988479													-9.505500	0.954414	2.248144	-0.040620	-0.932295	0.359410	0.276186	0.335216	0.900751	-0.960245	0.135852	0.243871
265	679996812													-9.580763	1.066841	2.532758	-0.039179	-0.932444	0.359184	0.275188	0.335491	0.900954	-0.960592	0.134142	0.243453
266	680005145													-9.510704	1.197914	2.438419	-0.037723	-0.932543	0.359084	0.274676	0.335822	0.900987	-0.960797	0.132619	0.243479
267	680013478													-9.485026	1.064411	2.371769	-0.036089	-0.932431	0.359541	0.274152	0.336735	0.900805	-0.961009	0.131077	0.243476
268	680021811													-9.513322	0.865590	2.303490	-0.034547	-0.932366	0.359861	0.273774	0.337473	0.900644	-0.961173	0.129635	0.243599
269	680030144													-9.561423	0.848342	2.608563	-0.032840	-0.932218	0.360404	0.273424	0.338462	0.900379	-0.961333	0.128111	0.243776
270	680038477													-9.678781	0.874461	2.774652	-0.031238	-0.932105	0.360839	0.273458	0.339271	0.900064	-0.961376	0.126791	0.244294
271	680046810													-9.717283	1.148674	2.799908	-0.029439	-0.931837	0.361681	0.273602	0.340507	0.899554	-0.961392	0.125439	0.244929
272	680055143													-9.676998	1.373460	2.418733	-0.027855	-0.931415	0.362892	0.273611	0.342065	0.898960	-0.961437	0.124332	0.245317
273	680063476													-9.702134	1.375837	2.285811	-0.026243	-0.930861	0.364429	0.273253	0.343991	0.898334	-0.961584	0.123156	0.245333
274	680071809													-9.648680	1.277603	2.120894	-0.024958	-0.930349	0.365826	0.272663	0.345730	0.897845	-0.961786	0.122156	0.245043
275	680080142													-9.644226	1.235034	2.190031	-0.023652	-0.929813	0.367271	0.271798	0.347555	0.897403	-0.962064	0.121049	0.244501
276	680088475													-9.582781	1.377077	2.183275	-0.022605	-0.929458	0.368235	0.271062	0.348835	0.897129	-0.962297	0.120094	0.244055
277	680096808													-9.525703	1.442794	2.186141	-0.021567	-0.929275	0.368759	0.270309	0.349688	0.897024	-0.962532	0.119025	0.243650
278	680105141													-9.494295	1.540319	2.225296	-0.020712	-0.929231	0.368918	0.269861	0.350106	0.896996	-0.962677	0.118135	0.243512
279	680113474													-9.493772	1.584765	2.109562	-0.019911	-0.929089	0.369321	0.269405	0.350745	0.896883	-0.962821	0.117355	0.243317
280	680121807													-9.494099	1.518569	2.306435	-0.019293	-0.928998	0.369582	0.269366	0.351152	0.896735	-0.962844	0.116854	0.243466
281	680130140													-9.406553	1.454365	2.014178	-0.018682	-0.928868	0.369941	0.269348	0.351650	0.896546	-0.962862	0.116392	0.243619
282	680138473													-9.355768	1.290298	1.849572	-0.018397	-0.928972	0.369693	0.269173	0.351502	0.896656	-0.962916	0.116007	0.243587
283	680146806													-9.349630	1.176316	1.961050	-0.018028	-0.929182	0.369182	0.268869	0.351136	0.896891	-0.963008	0.115431	0.243498
284	680155139													-9.363885	1.148537	2.112683	-0.017750	-0.929515	0.368356	0.268679	0.350429	0.897224	-0.963066	0.114895	0.243521
285	680163472													-9.459900	1.125287	2.283205	-0.017420	-0.929779	0.367705	0.268147	0.349945	0.897572	-0.963221	0.114234	0.243221
286	680171805													-9.513225	1.205589	2.337848	-0.017273	-0.930014	0.367118	0.267492	0.349490	0.897944	-0.963405	0.113711	0.242735
287	680180138													-9.549453	1.195888	2.195899	-0.017094	-0.930171	0.366728	0.266710	0.349250	0.898271	-0.963625	0.113164	0.242116
288	680188471													-9.520208	1.068256	2.170695	-0.016852	-0.930337	0.366319	0.266073	0.348988	0.898561	-0.963806	0.112611	0.241656
289	680196804													-9.549707	1.048638	2.173411	-0.016415	-0.930419	0.366130	0.265280	0.349004	0.898790	-0.964032	0.111880	0.241092
290	680205137													-9.637582	1.140899	2.375372	-0.016055	-0.930537	0.365845	0.264639	0.348889	0.899023	-0.964214	0.111250	0.240655
291	680213470													-9.562666	1.203508	2.259204	-0.015749	-0.930490	0.365978	0.263631	0.349208	0.899196	-0.964495	0.110644	0.239806
292	680221803													-9.557344	1.188606	1.981775	-0.015603	-0.930284	0.366508	0.262546	0.349879	0.899252	-0.964793	0.110256	0.238784
293	680230136													-9.607615	1.210667	1.888555	-0.015484	-0.929893	0.367505	0.261247	0.351019	0.899186	-0.965148	0.109933	0.237496
294	680238469													-9.736295	0.942321	2.169546	-0.015274	-0.929684	0.368041	0.260716	0.351647	0.899095	-0.965295	0.109687	0.237013
295	680246802													-9.609810	0.678162	2.232488	-0.014960	-0.929622	0.368212	0.260309	0.351934	0.899100	-0.965409	0.109299	0.236724
296	680255135													-9.553174	0.647412	2.214383	-0.014828	-0.929817	0.367723	0.259712	0.351560	0.899419	-0.965572	0.108838	0.236272
297	680263468													-9.641172	0.741986	2.194135	-0.014390	-0.929979	0.367330	0.259249	0.351336	0.899641	-0.965703	0.108176	0.236041
298	680271801													-9.569012	0.891069	2.079204	-0.013894	-0.929981	0.367344	0.258973	0.351497	0.899657	-0.965785	0.107632	0.235957
299	680280134													-9.477707	1.026438	2.161029	-0.013339	-0.929664	0.368166	0.257915	0.352541	0.899553	-0.966076	0.106955	0.235072
300	680288467													-9.627172	1.045933	2.328980	-0.012858	-0.929254	0.369217	0.256539	0.353823	0.899443	-0.966448	0.106284	0.233840
301	680296800													-9.714624	1.006055	2.119051	-0.012130	-0.928703	0.370625	0.255232	0.355499	0.899154	-0.966804	0.105502	0.232723
302	680305133													-9.694336	0.806086	1.987634	-0.011436	-0.928231	0.371830	0.253981	0.356962	0.898928	-0.967142	0.104718	0.231671
303	680313466													-9.695506	0.718212	1.847206	-0.010658	-0.927847	0.372808	0.252199	0.358282	0.898905	-0.967617	0.103602	0.230184
304	680321799													-9.757421	0.750802	1.865986	-0.010111	-0.927610	0.373413	0.250038	0.359224	0.899132	-0.968183	0.102459	0.228306
305	680330132													-9.830959	0.854352	1.823607	-0.009465	-0.927374	0.374016	0.247742	0.360196	0.899379	-0.968780	0.101172	0.226340
306	680338465													-9.756965	0.969586	1.986657	-0.008886	-0.927281	0.374261	0.245280	0.360821	0.899803	-0.969412	0.099794	0.224237
307	680346798													-9.738650	1.051067	2.265849	-0.008158	-0.927262	0.374324	0.242637	0.361314	0.900322	-0.970083	0.098170	0.222040
308	680355131													-9.662665	1.045571	2.155837	-0.007504	-0.927297	0.374250	0.240115	0.361640	0.900867	-0.970716	0.096623	0.219944
309	680363464													-9.706865	1.001238	1.862680	-0.006802	-0.927202	0.374500	0.237438	0.362301	0.901311	-0.971379	0.095051	0.217688
310	680371797													-9.783989	0.852114	2.114166	-0.005998	-0.927166	0.374603	0.235170	0.362795	0.901707	-0.971936	0.093503	0.215866
311	680380130													-9.793754	0.698219	2.095525	-0.004980	-0.927076	0.374841	0.232929	0.363459	0.902021	-0.972481	0.091803	0.214133
312	680388463													-9.823947	0.462209	1.761217	-0.003806	-0.926945	0.375179	0.230895	0.364229	0.902233	-0.972971	0.090061	0.212641
313	680396796													-9.800228	0.384813	1.819000	-0.002415	-0.926773	0.375615	0.228589	0.365159	0.902445	-0.973520	0.088041	0.210968
314	680405129													-9.858064	0.337717	1.851802	-0.000900	-0.926744	0.375693	0.226406	0.365749	0.902756	-0.974033	0.085872	0.209491
315	680413462													-9.715246	0.461972	1.817638	0.000821	-0.926801	0.375553	0.223943	0.366185	0.903193	-0.974602	0.083360	0.207851
316	680421795													-9.667484	0.613145	1.983123	0.002551	-0.926820	0.375498	0.221383	0.366706	0.903613	-0.975183	0.080824	0.206118
317	680430128													-9.637691	0.702885	1.427738	0.004329	-0.926782	0.375576	0.218382	0.367390	0.904065	-0.975854	0.078105	0.203983
318	680438461													-9.619864	0.709676	1.512358	0.005960	-0.926814	0.375472	0.215285	0.367864	0.904615	-0.976533	0.075442	0.201722
319	680446794													-9.607891	0.802370	1.699493	0.007544	-0.926860	0.375330	0.211795	0.368307	0.905259	-0.977285	0.072664	0.199082
320	680455127													-9.740102	0.707954	1.661831	0.009140	-0.927105	0.374691	0.208665	0.368225	0.906018	-0.977944	0.069904	0.196820
321	680463460													-9.640210	0.575355	1.761072	0.010856	-0.927534	0.373582	0.205536	0.367696	0.906948	-0.978589	0.066939	0.194633
322	680471793													-9.565911	0.626097	1.865308	0.012413	-0.928016	0.372334	0.202346	0.366990	0.907951	-0.979235	0.064070	0.192336
323	680480126													-9.580097	0.767977	1.802381	0.013992	-0.928429	0.371247	0.199004	0.366442	0.908910	-0.979899	0.061162	0.189888
324	680488459													-9.616882	0.796443	1.519291	0.015629	-0.928721	0.370451	0.195932	0.366158	0.909692	-0.980493	0.058366	0.187689
325	680496792													-9.558920	0.665655	1.430888	0.017372	-0.929011	0.369644	0.192701	0.365879	0.910494	-0.981104	0.055414	0.185377
326	680505125													-9.564159	0.673839	1.585758	0.018916	-0.929398	0.368593	0.189331	0.365319	0.911425	-0.981731	0.052546	0.182874
327	680513458													-9.620790	0.512402	1.618705	0.020530	-0.929700	0.367745	0.185872	0.364959	0.912281	-0.982359	0.049625	0.180298
328	680521791													-9.574736	0.251284	1.238326	0.022170	-0.930019	0.366842	0.182474	0.364533	0.913137	-0.982961	0.046695	0.177786
329	680530124													-9.673361	0.181451	1.206739	0.023902	-0.930468	0.365592	0.178992	0.363770	0.914130	-0.983560	0.043588	0.175241
330	680538457													-9.658893	0.145898	1.311972	0.025681	-0.931055	0.363973	0.175891	0.362621	0.915188	-0.984075	0.040516	0.173077
331	680546790													-9.562976	0.215172	1.569189	0.027541	-0.931614	0.362404	0.172624	0.361527	0.916242	-0.984603	0.037326	0.170776
332	680555123													-9.561620	0.336065	1.752120	0.029315	-0.932249	0.360629	0.169469	0.360196	0.917354	-0.985099	0.034223	0.168547
333	680563456													-9.554113	0.342512	1.665471	0.031152	-0.932736	0.359212	0.166163	0.359218	0.918342	-0.985606	0.031080	0.166176
334	680571789													-9.584182	0.334204	1.362551	0.032903	-0.933165	0.357940	0.163001	0.358349	0.919248	-0.986077	0.028099	0.163898
335	680580122													-9.618940	0.154060	1.319135	0.034688	-0.933547	0.356772	0.159791	0.357576	0.920112	-0.986541	0.025092	0.161576
336	680588455													-9.713473	-0.013957	1.542465	0.036504	-0.933948	0.355540	0.157233	0.356713	0.920887	-0.986887	0.022287	0.159869
337	680596788													-9.691925	-0.018192	1.691610	0.038442	-0.934247	0.354549	0.154987	0.356092	0.921508	-0.987168	0.019526	0.158485
338	680605121													-9.636937	0.071904	1.489374	0.040366	-0.934439	0.353829	0.152971	0.355723	0.921988	-0.987406	0.016909	0.157300
339	680613454													-9.658937	0.251897	1.410012	0.042430	-0.934408	0.353670	0.151055	0.355919	0.922228	-0.987614	0.014294	0.156249
340	680621787													-9.621150	0.459453	1.156373	0.044407	-0.934330	0.353631	0.149312	0.356212	0.922399	-0.987793	0.011841	0.155325
341	680630120													-9.675217	0.590841	1.154785	0.046317	-0.934223	0.353668	0.147412	0.356564	0.922568	-0.987990	0.009404	0.154231
342	680638453													-9.694525	0.445062	1.123677	0.048115	-0.934254	0.353348	0.145954	0.356537	0.922811	-0.988121	0.007171	0.153512
343	680646786													-9.689958	0.317411	1.141934	0.049750	-0.934257	0.353112	0.144343	0.356564	0.923053	-0.988276	0.005047	0.152592
344	680655119													-9.786618	0.337027	1.041640	0.051210	-0.934262	0.352890	0.143033	0.356572	0.923254	-0.988392	0.003195	0.151890
345	680663452													-9.821136	0.300779	1.167768	0.052578	-0.934288	0.352620	0.141712	0.356515	0.923480	-0.988511	0.001415	0.151144
346	680671785													-9.691652	0.420969	1.314558	0.053809	-0.934326	0.352334	0.140450	0.356419	0.923710	-0.988624	-0.000219	0.150405
347	680680118													-9.716434	0.344259	1.224750	0.054949	-0.934393	0.351981	0.138965	0.356239	0.924003	-0.988772	-0.001860	0.149422
348	680688451													-9.731269	0.243182	1.149865	0.055990	-0.934557	0.351381	0.137635	0.355797	0.924373	-0.988899	-0.003393	0.148548
349	680696784													-9.787736	0.199914	1.217729	0.056920	-0.934808	0.350562	0.136363	0.355120	0.924822	-0.989022	-0.004837	0.147687
350	680705117													-9.788789	0.143198	1.206180	0.057782	-0.935167	0.349462	0.135646	0.354154	0.925297	-0.989071	-0.006063	0.147315
351	680713450													-9.816441	0.159357	0.997821	0.058646	-0.935468	0.348513	0.134898	0.353338	0.925719	-0.989123	-0.007276	0.146914
352	680721783													-9.790240	0.135312	0.968115	0.059541	-0.935743	0.347621	0.134352	0.352583	0.926086	-0.989143	-0.008437	0.146713
353	680730116													-9.748806	0.085690	0.927632	0.060363	-0.935940	0.346946	0.133594	0.352028	0.926406	-0.989196	-0.009571	0.146286
354	680738449													-9.813149	0.008379	1.093599	0.061077	-0.936235	0.346024	0.133247	0.351216	0.926764	-0.989199	-0.010498	0.146202
355	680746782													-9.742002	-0.034671	1.166412	0.061632	-0.936487	0.345244	0.132652	0.350519	0.927114	-0.989245	-0.011342	0.145830
356	680755115													-9.853921	-0.082624	1.628393	0.062166	-0.936806	0.344281	0.132665	0.349643	0.927443	-0.989209	-0.011981	0.146017
357	680763448													-9.880898	-0.070691	1.580828	0.062712	-0.937065	0.343476	0.133088	0.348932	0.927650	-0.989118	-0.012462	0.146595
358	680771781													-9.750980	0.052890	1.266104	0.063154	-0.937265	0.342850	0.133581	0.348384	0.927785	-0.989024	-0.012795	0.147203
359	680780114													-9.763413	-0.038540	0.981858	0.063433	-0.937309	0.342677	0.133536	0.348253	0.927841	-0.989012	-0.013096	0.147256
360	680788447													-9.855652	-0.081668	1.137687	0.063631	-0.937456	0.342240	0.133673	0.347851	0.927972	-0.988981	-0.013299	0.147447
361	680796780													-9.894242	-0.077049	1.248191	0.063793	-0.937575	0.341883	0.133971	0.347525	0.928051	-0.988930	-0.013401	0.147777
362	680805113													-9.876684	-0.036588	1.214324	0.063915	-0.937781	0.341295	0.134755	0.346972	0.928144	-0.988815	-0.013331	0.148547
363	680813446													-9.806462	0.007485	1.168821	0.063969	-0.937962	0.340787	0.135524	0.346488	0.928213	-0.988707	-0.013193	0.149281
364	680821779													-9.738084	-0.124354	1.430110	0.063880	-0.938237	0.340044	0.136313	0.345750	0.928373	-0.988604	-0.012952	0.149980
365	680830112													-9.733105	-0.166972	1.364210	0.063727	-0.938375	0.339692	0.136745	0.345384	0.928445	-0.988554	-0.012716	0.150328
366	680838445													-9.803060	-0.130083	1.406103	0.063553	-0.938480	0.339437	0.137345	0.345113	0.928458	-0.988482	-0.012387	0.150828
367	680846778													-9.699027	-0.065691	1.632687	0.063302	-0.938474	0.339500	0.137817	0.345143	0.928376	-0.988433	-0.011979	0.151186
368	680855111													-9.674359	-0.080916	1.498389	0.063027	-0.938492	0.339501	0.138442	0.345110	0.928296	-0.988363	-0.011507	0.151678
369	680863444													-9.660617	-0.097487	1.267730	0.062638	-0.938480	0.339606	0.138647	0.345157	0.928248	-0.988359	-0.011058	0.151737
370	680871777													-9.801030	-0.001757	1.331355	0.062114	-0.938556	0.339493	0.138856	0.344968	0.928287	-0.988363	-0.010518	0.151752
371	680880110													-9.759679	0.064958	1.153768	0.061572	-0.938530	0.339662	0.139038	0.345055	0.928227	-0.988371	-0.009927	0.151737
372	680888443													-9.772416	0.031232	1.378401	0.061035	-0.938564	0.339664	0.139589	0.344981	0.928172	-0.988327	-0.009238	0.152069
373	680896776													-9.755094	0.031614	1.523106	0.060428	-0.938615	0.339633	0.140019	0.344862	0.928151	-0.988303	-0.008532	0.152263
374	680905109													-9.749315	-0.018238	1.547137	0.059745	-0.938868	0.339055	0.140564	0.344190	0.928318	-0.988267	-0.007803	0.152535
375	680913442													-9.741334	-0.033265	1.322777	0.059067	-0.939143	0.338412	0.141039	0.343454	0.928519	-0.988240	-0.007115	0.152742
376	680921775													-9.765961	0.005111	1.096618	0.058336	-0.939528	0.337468	0.141677	0.342413	0.928806	-0.988193	-0.006371	0.153084
377	680930108													-9.781096	0.011050	1.155477	0.057555	-0.939825	0.336773	0.142227	0.341610	0.929018	-0.988159	-0.005572	0.153330
378	680938441													-9.739356	-0.046850	1.117612	0.056848	-0.940108	0.336104	0.142999	0.340844	0.929180	-0.988089	-0.004759	0.153811
379	680946774													-9.751465	-0.031985	1.234829	0.056132	-0.940269	0.335772	0.143555	0.340408	0.929255	-0.988049	-0.003959	0.154088
380	680955107													-9.833253	-0.181978	1.438982	0.055521	-0.940538	0.335120	0.144505	0.339674	0.929376	-0.987945	-0.003173	0.154771
381	680963440													-9.766150	-0.298661	1.621824	0.054993	-0.940754	0.334602	0.145319	0.339082	0.929465	-0.987855	-0.002490	0.155356
382	680971773													-9.738740	-0.359385	1.478731	0.054612	-0.941030	0.333887	0.146014	0.338318	0.929635	-0.987774	-0.002017	0.155879
383	680980106													-9.710404	-0.241473	1.320458	0.054368	-0.941164	0.333547	0.146387	0.337945	0.929712	-0.987732	-0.001720	0.156148
384	680988439													-9.633027	-0.109610	1.066916	0.054015	-0.941246	0.333374	0.146230	0.337719	0.929819	-0.987775	-0.001475	0.155881
385	680996772													-9.700197	-0.190724	1.302970	0.053658	-0.941195	0.333577	0.145673	0.337863	0.929854	-0.987877	-0.001301	0.155236
386	681005105													-9.711575	-0.295631	1.375124	0.053399	-0.941196	0.333616	0.145419	0.337860	0.929894	-0.987928	-0.001141	0.154909
387	681013438													-9.718493	-0.464615	1.547658	0.053212	-0.941160	0.333746	0.144894	0.337960	0.929940	-0.988015	-0.001126	0.154352
388	681021771													-9.739287	-0.405137	1.684259	0.053219	-0.941241	0.333516	0.144663	0.337733	0.930059	-0.988049	-0.001250	0.154136
389	681030104													-9.784253	-0.272411	1.411887	0.053381	-0.941315	0.333282	0.144369	0.337527	0.930179	-0.988083	-0.001538	0.153914
390	681038437													-9.792812	-0.003854	1.215818	0.053551	-0.941507	0.332713	0.144221	0.336990	0.930397	-0.988095	-0.001839	0.153831
391	681046770													-9.766341	0.156508	1.376632	0.053664	-0.941672	0.332225	0.143691	0.336524	0.930647	-0.988167	-0.002205	0.153369
392	681055103													-9.780083	0.237569	1.331884	0.053693	-0.941902	0.331567	0.143281	0.335878	0.930944	-0.988224	-0.002478	0.152991
393	681063436													-9.748966	0.199820	1.032335	0.053691	-0.942108	0.330982	0.142449	0.335297	0.931281	-0.988345	-0.002853	0.152205
394	681071769													-9.758939	0.031500	1.191399	0.053647	-0.942461	0.329983	0.141692	0.334300	0.931755	-0.988456	-0.003230	0.151474
395	681080102													-9.763048	-0.092349	1.313414	0.053696	-0.942825	0.328934	0.140952	0.333268	0.932237	-0.988559	-0.003694	0.150788
396	681088435													-9.696470	-0.154555	1.358018	0.053867	-0.943273	0.327620	0.140458	0.331992	0.932766	-0.988620	-0.004229	0.150374
397	681096768													-9.676273	-0.209996	1.247993	0.054116	-0.943538	0.326815	0.139563	0.331229	0.933172	-0.988733	-0.004888	0.149608
398	681105101													-9.682570	-0.294497	1.176503	0.054409	-0.943833	0.325911	0.138604	0.330374	0.933618	-0.988852	-0.005625	0.148795
399	681113434													-9.649827	-0.330538	1.264367	0.054749	-0.944021	0.325311	0.137202	0.329821	0.934020	-0.989029	-0.006503	0.147579
400	681121767													-9.595829	-0.369687	1.208773	0.055182	-0.944208	0.324695	0.135618	0.329264	0.934448	-0.989223	-0.007530	0.146221
401	681130100													-9.684092	-0.336509	1.344005	0.055703	-0.944265	0.324440	0.133640	0.329072	0.934801	-0.989463	-0.008713	0.144522
402	681138433													-9.768970	-0.213746	1.211264	0.056337	-0.944397	0.323946	0.132038	0.328659	0.935173	-0.989642	-0.009912	0.143212
403	681146766													-9.819901	-0.147944	1.209513	0.057137	-0.944451	0.323648	0.130662	0.328464	0.935435	-0.989779	-0.011159	0.142172
404	681155099													-9.754422	-0.137601	1.245978	0.058002	-0.944574	0.323135	0.129676	0.328066	0.935712	-0.989859	-0.012370	0.141517
405	681163432													-9.728278	-0.156048	1.232942	0.058866	-0.944656	0.322738	0.128462	0.327779	0.935980	-0.989966	-0.013637	0.140647
406	681171765													-9.764857	-0.110714	1.284721	0.059685	-0.944909	0.321845	0.127288	0.326992	0.936416	-0.990068	-0.014923	0.139792
407	681180098													-9.802777	0.105069	1.546929	0.060474	-0.945101	0.321133	0.126088	0.326377	0.936792	-0.990174	-0.016160	0.138904
408	681188431													-9.758958	0.203976	1.397261	0.061244	-0.945252	0.320544	0.125242	0.325887	0.937077	-0.990234	-0.017245	0.138344
409	681196764													-9.642487	0.160872	1.035779	0.062004	-0.945182	0.320605	0.123986	0.326029	0.937194	-0.990345	-0.018359	0.137404
410	681205097													-9.662444	0.058860	0.794311	0.062697	-0.945169	0.320507	0.122395	0.325997	0.937414	-0.990499	-0.019545	0.136123
411	681213430													-9.717332	-0.016843	0.842058	0.063401	-0.945176	0.320348	0.120518	0.325896	0.937692	-0.990684	-0.020843	0.134573
412	681221763													-9.761087	-0.102148	0.884837	0.064104	-0.945446	0.319409	0.118946	0.325024	0.938196	-0.990829	-0.022149	0.133293
413	681230096													-9.763033	-0.137295	0.870142	0.064824	-0.945784	0.318261	0.117335	0.323943	0.938772	-0.990974	-0.023512	0.131973
414	681238429													-9.740423	-0.100888	0.870659	0.065445	-0.946230	0.316804	0.115676	0.322539	0.939461	-0.991129	-0.024836	0.130565
415	681246762													-9.753341	-0.026531	1.008203	0.065921	-0.946527	0.315818	0.113593	0.321568	0.940048	-0.991338	-0.026094	0.128717
416	681255095													-9.759999	-0.059896	1.005934	0.066335	-0.946877	0.314679	0.111417	0.320431	0.940697	-0.991557	-0.027341	0.126754
417	681263428													-9.776926	-0.061090	1.076445	0.066750	-0.947159	0.313744	0.109081	0.319488	0.941291	-0.991789	-0.028608	0.124642
418	681271761													-9.888148	-0.096682	1.089738	0.067183	-0.947498	0.312625	0.107105	0.318371	0.941896	-0.991975	-0.029796	0.122871
419	681280094													-9.951699	-0.155144	1.224159	0.067741	-0.947765	0.311694	0.105813	0.317474	0.942345	-0.992076	-0.030855	0.121792
420	681288427													-9.839163	-0.264420	0.825750	0.068335	-0.948013	0.310809	0.104651	0.316630	0.942758	-0.992159	-0.031897	0.120847
421	681296760													-9.880645	-0.316595	0.949176	0.068903	-0.948362	0.309616	0.103353	0.315469	0.943291	-0.992255	-0.032996	0.119752
422	681305093													-9.792316	-0.364110	1.056559	0.069453	-0.948737	0.308342	0.102113	0.314226	0.943840	-0.992345	-0.034067	0.118702
423	681313426													-9.776038	-0.275350	1.100417	0.069909	-0.949129	0.307028	0.100800	0.312927	0.944413	-0.992448	-0.035075	0.117548
424	681321759													-9.808008	-0.212213	1.129881	0.070340	-0.949472	0.305869	0.099546	0.311779	0.944926	-0.992544	-0.036018	0.116447
425	681330092													-9.764301	-0.243200	0.965998	0.070756	-0.949760	0.304877	0.098329	0.310796	0.945377	-0.992635	-0.036913	0.115379
426	681338425													-9.791660	-0.317913	0.938886	0.071110	-0.950051	0.303885	0.096960	0.309797	0.945846	-0.992745	-0.037795	0.114147
427	681346758													-9.839949	-0.346968	0.836607	0.071486	-0.950385	0.302750	0.095825	0.308666	0.946331	-0.992828	-0.038638	0.113136
428	681355091													-9.857374	-0.355631	0.842274	0.071898	-0.950746	0.301518	0.094693	0.307442	0.946844	-0.992907	-0.039525	0.112133
429	681363424													-9.781764	-0.346600	0.772896	0.072310	-0.951157	0.300120	0.093700	0.306055	0.947391	-0.992971	-0.040385	0.111254
430	681371757													-9.758497	-0.291159	0.764764	0.072589	-0.951567	0.298750	0.092453	0.304670	0.947960	-0.993068	-0.041191	0.110091
431	681380090													-9.815522	-0.277022	0.761517	0.072655	-0.951966	0.297458	0.090866	0.303324	0.948545	-0.993209	-0.041888	0.108539
432	681388423													-9.913776	-0.275769	0.848980	0.072696	-0.952373	0.296145	0.089555	0.301964	0.949104	-0.993325	-0.042475	0.107241
433	681396756													-9.812819	-0.290716	0.892981	0.072812	-0.952713	0.295018	0.088752	0.300819	0.949542	-0.993389	-0.042954	0.106459
434	681405089													-9.834248	-0.388844	0.877411	0.072877	-0.953021	0.294007	0.087792	0.299776	0.949962	-0.993469	-0.043419	0.105514
435	681413422													-9.889567	-0.459538	0.900416	0.073006	-0.953316	0.293016	0.087125	0.298773	0.950339	-0.993519	-0.043852	0.104871
436	681421755													-9.822047	-0.440788	0.917420	0.073110	-0.953585	0.292113	0.086509	0.297856	0.950683	-0.993565	-0.044235	0.104270
437	681430088													-9.837892	-0.430571	1.022102	0.073174	-0.953850	0.291231	0.085923	0.296958	0.951017	-0.993611	-0.044566	0.103687
438	681438421													-9.809791	-0.451662	0.862657	0.073300	-0.954084	0.290431	0.085507	0.296154	0.951305	-0.993638	-0.044896	0.103289
439	681446754													-9.761036	-0.406087	0.565170	0.073464	-0.954310	0.289648	0.084953	0.295366	0.951600	-0.993673	-0.045302	0.102770
440	681455087													-9.763628	-0.279699	0.489089	0.073514	-0.954622	0.288604	0.084067	0.294289	0.952012	-0.993745	-0.045724	0.101887
441	681463420													-9.775945	-0.201583	0.514889	0.073493	-0.955062	0.287150	0.083231	0.292798	0.952545	-0.993817	-0.046105	0.101009
442	681471753													-9.849475	-0.161412	0.656846	0.073348	-0.955579	0.285463	0.082445	0.291064	0.953145	-0.993893	-0.046376	0.100132
443	681480086													-9.846077	-0.229618	0.956857	0.073182	-0.956063	0.283882	0.081868	0.289443	0.953688	-0.993953	-0.046552	0.099453
444	681488419													-9.841887	-0.300126	0.856695	0.073058	-0.956465	0.282555	0.081364	0.288084	0.954142	-0.994003	-0.046718	0.098869
445	681496752													-9.916483	-0.377982	1.177842	0.073089	-0.956835	0.281293	0.081248	0.286822	0.954532	-0.994010	-0.046911	0.098704
446	681505085													-9.792361	-0.400780	1.039077	0.073014	-0.957207	0.280043	0.080773	0.285545	0.954955	-0.994055	-0.047105	0.098165
447	681513418													-9.842706	-0.479893	0.770858	0.073010	-0.957596	0.278709	0.080235	0.284189	0.955405	-0.994099	-0.047392	0.097581
448	681521751													-9.810143	-0.513412	0.471766	0.073081	-0.958020	0.277232	0.079771	0.282700	0.955886	-0.994131	-0.047742	0.097083
449	681530084													-9.678145	-0.494467	0.117370	0.072960	-0.958515	0.275546	0.078963	0.280967	0.956464	-0.994204	-0.048026	0.096186
450	681538417													-9.656279	-0.443402	0.013222	0.072691	-0.959073	0.273670	0.077863	0.279016	0.957125	-0.994311	-0.048265	0.094958
451	681546750													-9.713662	-0.435670	-0.007766	0.072364	-0.959708	0.271522	0.076731	0.276785	0.957863	-0.994422	-0.048481	0.093669
452	681555083													-9.771253	-0.408970	-0.034582	0.071875	-0.960436	0.269064	0.075316	0.274218	0.958714	-0.994566	-0.048643	0.092045
453	681563416													-9.837565	-0.395361	0.628085	0.071414	-0.961191	0.266480	0.074548	0.271558	0.959530	-0.994657	-0.048658	0.091048
454	681571749													-9.723651	-0.543900	1.486360	0.071091	-0.961861	0.264139	0.074933	0.269210	0.960162	-0.994651	-0.048467	0.091213
455	681580082													-9.756166	-0.718747	1.910204	0.070857	-0.962341	0.262447	0.075457	0.267525	0.960592	-0.994628	-0.048261	0.091572
456	681588415													-9.985364	-0.923926	2.162011	0.070963	-0.962567	0.261588	0.075593	0.266684	0.960815	-0.994610	-0.048408	0.091688
457	681596748													-10.281027	-1.037428	1.675112	0.071586	-0.962657	0.261089	0.076026	0.266265	0.960897	-0.994533	-0.048937	0.092247
458	681605081													-10.075167	-0.969102	0.439383	0.072196	-0.962818	0.260324	0.076184	0.265566	0.961078	-0.994477	-0.049554	0.092524
459	681613414													-9.698725	-0.773065	-0.387477	0.072479	-0.963180	0.258902	0.075613	0.264145	0.961515	-0.994500	-0.050113	0.091974
460	681621747													-9.526771	-0.657546	-0.493118	0.072485	-0.963682	0.257025	0.074426	0.262211	0.962136	-0.994589	-0.050611	0.090729
461	681630080													-9.501828	-0.627031	-0.265168	0.072415	-0.964153	0.255276	0.072972	0.260383	0.962744	-0.994702	-0.051089	0.089212
462	681638413													-9.563064	-0.671948	-0.111290	0.072406	-0.964502	0.253957	0.071532	0.258991	0.963227	-0.994807	-0.051578	0.087745
463	681646746													-9.611947	-0.658436	-0.062270	0.072492	-0.964777	0.252885	0.070384	0.257868	0.963613	-0.994882	-0.052055	0.086598
464	681655079													-9.658102	-0.575667	0.106115	0.072552	-0.965097	0.251643	0.069454	0.256585	0.964023	-0.994943	-0.052464	0.085646
465	681663412													-9.638386	-0.562987	1.202069	0.072643	-0.965480	0.250142	0.069017	0.255070	0.964456	-0.994967	-0.052797	0.085164
466	681671745													-9.402914	-0.919306	2.202023	0.072738	-0.965949	0.248299	0.068630	0.253216	0.964972	-0.994987	-0.053149	0.084711
467	681680078													-10.008389	-1.096147	2.654278	0.073232	-0.966219	0.247100	0.068334	0.252044	0.965300	-0.994971	-0.053805	0.084483
468	681688411													-10.715130	-1.228460	2.266592	0.074428	-0.966105	0.247186	0.068553	0.252244	0.965232	-0.994867	-0.054895	0.085003
469	681696744													-10.792786	-1.449031	1.692520	0.076030	-0.965861	0.247652	0.069468	0.252898	0.964996	-0.994683	-0.056165	0.086324
470	681705077													-10.064240	-1.273990	0.085705	0.077206	-0.965848	0.247340	0.069486	0.252690	0.965049	-0.994591	-0.057321	0.086623
471	681713410													-9.515963	-0.881435	-1.270319	0.077447	-0.966263	0.245638	0.067297	0.250882	0.965676	-0.994723	-0.058258	0.084457
472	681721743													-9.458369	-0.647730	-0.920764	0.077191	-0.966803	0.243587	0.064225	0.248630	0.966467	-0.994946	-0.058958	0.081285
473	681730076													-9.531000	-0.556727	0.021663	0.077010	-0.967127	0.242354	0.062221	0.247264	0.966948	-0.995087	-0.059385	0.079217
474	681738409													-9.705825	-0.540309	0.411458	0.076984	-0.967107	0.242439	0.061400	0.247297	0.966992	-0.995140	-0.059557	0.078418
475	681746742													-9.860972	-0.541763	0.374263	0.077037	-0.966875	0.243349	0.061599	0.248223	0.966742	-0.995124	-0.059485	0.078681
476	681755075													-9.972546	-0.556518	0.432075	0.077048	-0.966630	0.244317	0.062136	0.249224	0.966450	-0.995089	-0.059282	0.079265
477	681763408													-9.958203	-0.465524	1.046440	0.076868	-0.966462	0.245036	0.062444	0.249948	0.966244	-0.995084	-0.058972	0.079563
478	681771741													-9.941290	-0.719625	2.263666	0.076543	-0.966361	0.245537	0.062848	0.250445	0.966089	-0.995084	-0.058516	0.079903
479	681780074													-10.223281	-0.633048	2.687520	0.076006	-0.966252	0.246130	0.062727	0.250988	0.965956	-0.995132	-0.057979	0.079687
480	681788407													-10.864189	-0.812152	2.507184	0.075414	-0.966039	0.247147	0.062087	0.251921	0.965754	-0.995218	-0.057486	0.078977
481	681796740													-10.732579	-0.904592	1.032919	0.075107	-0.965961	0.247545	0.062642	0.252326	0.965612	-0.995206	-0.057017	0.079461
482	681805073													-9.978150	-0.617770	-0.134165	0.074458	-0.966040	0.247431	0.063446	0.252206	0.965591	-0.995204	-0.056197	0.080070
483	681813406													-9.467094	-0.468969	-0.840078	0.073175	-0.966220	0.247110	0.063240	0.251771	0.965718	-0.995312	-0.055039	0.079527
484	681821739													-9.302973	-0.643348	-0.524502	0.071713	-0.966325	0.247130	0.062289	0.251623	0.965819	-0.995478	-0.053869	0.078236
485	681830072													-9.508139	-0.769197	0.564949	0.070452	-0.966114	0.248313	0.061891	0.252686	0.965567	-0.995593	-0.052658	0.077596
486	681838405													-9.768444	-0.606816	0.741607	0.069538	-0.965596	0.250577	0.062536	0.254910	0.964940	-0.995617	-0.051430	0.078110
487	681846738													-9.892961	-0.414248	0.285949	0.068833	-0.965045	0.252886	0.064113	0.257242	0.964218	-0.995566	-0.050157	0.079578
488	681855071													-9.990302	-0.329359	0.230053	0.067939	-0.964627	0.254715	0.065627	0.259073	0.963626	-0.995529	-0.048751	0.080907
489	681863404													-10.067023	-0.306232	0.688168	0.066814	-0.964441	0.255715	0.066946	0.260044	0.963273	-0.995517	-0.047241	0.081940
490	681871737													-9.957184	-0.379457	1.247248	0.065442	-0.964503	0.255834	0.067894	0.260094	0.963194	-0.995544	-0.045664	0.082505
491	681880070													-10.014011	-0.349819	1.984832	0.063896	-0.964643	0.255698	0.068254	0.259846	0.963235	-0.995620	-0.044095	0.082443
492	681888403													-10.210436	-0.472295	1.800371	0.062588	-0.964583	0.256245	0.068933	0.260313	0.963060	-0.995656	-0.042613	0.082784
493	681896736													-10.007137	-0.602264	0.984503	0.061484	-0.964366	0.257329	0.070425	0.261365	0.962667	-0.995620	-0.041067	0.083986
494	681905069													-9.756292	-0.632528	0.589619	0.060187	-0.964144	0.258465	0.071850	0.262447	0.962268	-0.995598	-0.039345	0.085070
495	681913402													-9.497866	-0.638143	0.090336	0.058582	-0.963804	0.260095	0.072513	0.263962	0.961803	-0.995646	-0.037484	0.085352
496	681921735													-9.436979	-0.662721	0.110284	0.057014	-0.963386	0.261987	0.072759	0.265726	0.961299	-0.995719	-0.035745	0.085245
497	681930068													-9.487908	-0.576754	0.148789	0.055598	-0.962972	0.263805	0.073270	0.267436	0.960786	-0.995761	-0.034089	0.085426
498	681938401													-9.612072	-0.429903	0.276296	0.054432	-0.962509	0.265731	0.074170	0.269288	0.960199	-0.995759	-0.032556	0.086047
499	681946734													-9.695186	-0.361867	0.171287	0.053375	-0.961999	0.267786	0.075222	0.271280	0.959557	-0.995737	-0.031073	0.086843
500	681955067													-9.839806	-0.440939	0.236020	0.052386	-0.961466	0.269885	0.076008	0.273311	0.958918	-0.995730	-0.029721	0.087397
501	681963400													-9.835234	-0.624983	0.568653	0.051481	-0.960970	0.271819	0.076485	0.275174	0.958347	-0.995741	-0.028547	0.087666
502	681971733													-9.782971	-0.735765	0.802133	0.050475	-0.960611	0.273273	0.076416	0.276534	0.957961	-0.995798	-0.027471	0.087364
503	681980066													-9.897898	-0.832433	0.775039	0.049528	-0.960322	0.274459	0.076294	0.277631	0.957653	-0.995854	-0.026491	0.087018
504	681988399													-9.768456	-0.708046	0.594422	0.048708	-0.960103	0.275371	0.076557	0.278476	0.957387	-0.995875	-0.025551	0.087067
505	681996732													-9.670416	-0.404399	0.630084	0.047941	-0.959864	0.276336	0.076903	0.279380	0.957096	-0.995885	-0.024633	0.087210
506	682005065													-9.683189	-0.290532	0.355484	0.047195	-0.959546	0.277569	0.077134	0.280550	0.956735	-0.995903	-0.023743	0.087254
507	682013398													-9.729901	-0.227725	0.247205	0.046503	-0.959144	0.279072	0.077695	0.282000	0.956263	-0.995892	-0.022787	0.087634
508	682021731													-9.750266	-0.240029	0.388674	0.045742	-0.958640	0.280923	0.077829	0.283783	0.955725	-0.995917	-0.021853	0.087590
509	682030064													-9.825313	-0.459914	0.710551	0.045060	-0.957989	0.283243	0.077837	0.286036	0.955052	-0.995947	-0.020988	0.087455
510	682038397													-9.815213	-0.546839	0.701519	0.044642	-0.957395	0.285311	0.078225	0.288069	0.954409	-0.995936	-0.020288	0.087753
511	682046730													-9.765436	-0.492638	0.302420	0.044380	-0.956997	0.286682	0.078652	0.289421	0.953965	-0.995914	-0.019789	0.088114
512	682055063													-9.706477	-0.427778	0.331444	0.044203	-0.956687	0.287744	0.078689	0.290465	0.953645	-0.995919	-0.019512	0.088120
513	682063396													-9.786493	-0.408890	0.991126	0.044231	-0.956395	0.288709	0.078921	0.291434	0.953330	-0.995899	-0.019381	0.088370
514	682071729													-9.877414	-0.304953	0.982181	0.044407	-0.956072	0.289748	0.078993	0.292487	0.953001	-0.995886	-0.019432	0.088512
515	682080062													-9.897744	-0.209076	0.984978	0.044679	-0.955751	0.290765	0.079252	0.293529	0.952659	-0.995853	-0.019520	0.088860
516	682088395													-9.814590	-0.069760	0.668998	0.044954	-0.955503	0.291536	0.079625	0.294330	0.952381	-0.995811	-0.019600	0.089313
517	682096728													-9.704312	-0.004757	0.436784	0.045174	-0.955307	0.292144	0.079628	0.294955	0.952187	-0.995800	-0.019752	0.089394
518	682105061													-9.668142	0.074726	0.282528	0.045414	-0.955222	0.292384	0.079400	0.295212	0.952127	-0.995808	-0.020025	0.089252
519	682113394													-9.740427	0.127100	0.375309	0.045827	-0.955172	0.292484	0.079585	0.295352	0.952068	-0.995774	-0.020353	0.089552
520	682121727													-9.638844	0.151395	0.500542	0.046444	-0.955122	0.292550	0.079810	0.295477	0.952010	-0.995728	-0.020867	0.089951
521	682130060													-9.525465	0.192108	0.515293	0.047117	-0.954971	0.292933	0.079635	0.295916	0.951889	-0.995710	-0.021522	0.089992
522	682138393													-9.674225	0.085249	0.775319	0.047867	-0.954739	0.293567	0.079002	0.296602	0.951728	-0.995725	-0.022363	0.089624
523	682146726													-9.759816	-0.094865	0.775129	0.048715	-0.954570	0.293977	0.078104	0.297066	0.951657	-0.995754	-0.023400	0.089027
524	682155059													-9.742787	-0.141344	0.636477	0.049460	-0.954536	0.293965	0.076923	0.297091	0.951746	-0.995810	-0.024460	0.088119
525	682163392													-9.723070	-0.195842	0.597557	0.050070	-0.954604	0.293641	0.075630	0.296789	0.951943	-0.995878	-0.025455	0.087057
526	682171725													-9.728180	-0.205106	0.517990	0.050692	-0.954716	0.293168	0.074383	0.296340	0.952182	-0.995941	-0.026462	0.086037
527	682180058													-9.792358	-0.248834	0.571924	0.051441	-0.954667	0.293197	0.073037	0.296396	0.952268	-0.996002	-0.027572	0.084973
528	682188391													-9.778581	-0.366987	0.586174	0.052161	-0.954739	0.292835	0.071947	0.296065	0.952454	-0.996044	-0.028612	0.084134
529	682196724													-9.819937	-0.393657	0.643951	0.052777	-0.954795	0.292541	0.070585	0.295783	0.952644	-0.996109	-0.029629	0.083005
530	682205057													-9.850878	-0.404565	0.734473	0.053315	-0.954806	0.292408	0.069222	0.295654	0.952784	-0.996176	-0.030557	0.081856
531	682213390													-9.932674	-0.340536	0.720616	0.053899	-0.954820	0.292256	0.068314	0.295521	0.952891	-0.996207	-0.031395	0.081156
532	682221723													-9.890275	-0.321958	0.864482	0.054536	-0.954797	0.292214	0.067504	0.295506	0.952953	-0.996227	-0.032245	0.080568
533	682230056													-9.792836	-0.278430	0.773741	0.055112	-0.954743	0.292280	0.066756	0.295594	0.952979	-0.996246	-0.033010	0.080025
534	682238389													-9.852643	-0.306456	0.849021	0.055610	-0.954658	0.292466	0.065723	0.295783	0.952991	-0.996287	-0.033774	0.079191
535	682246722													-9.967843	-0.306169	0.809677	0.056128	-0.954564	0.292672	0.064651	0.295994	0.952999	-0.996328	-0.034568	0.078327
536	682255055													-9.956494	-0.252429	0.631403	0.056652	-0.954535	0.292667	0.064014	0.296007	0.953038	-0.996340	-0.035256	0.077873
537	682263388													-9.842657	-0.146976	0.401144	0.057012	-0.954574	0.292469	0.063643	0.295824	0.953120	-0.996343	-0.035725	0.077618
538	682271721													-9.801567	-0.075007	0.335487	0.057217	-0.954650	0.292180	0.062972	0.295527	0.953257	-0.996374	-0.036143	0.077026
539	682280054													-9.874166	-0.036101	0.423895	0.057414	-0.954752	0.291810	0.062581	0.295159	0.953396	-0.996387	-0.036477	0.076695
540	682288387													-9.852642	0.012143	0.377606	0.057668	-0.954898	0.291279	0.062643	0.294651	0.953550	-0.996369	-0.036743	0.076809
541	682296720													-9.858320	-0.038187	0.383028	0.057840	-0.955121	0.290514	0.062851	0.293908	0.953765	-0.996345	-0.036907	0.077031
542	682305053													-9.829803	-0.216588	0.663388	0.057923	-0.955389	0.289614	0.063204	0.293029	0.954012	-0.996318	-0.036955	0.077357
543	682313386													-9.819547	-0.412757	0.849780	0.057789	-0.955716	0.288561	0.063095	0.291963	0.954346	-0.996333	-0.036944	0.077173
544	682321719													-10.012570	-0.413459	1.053404	0.057441	-0.956055	0.287506	0.062299	0.290852	0.954738	-0.996403	-0.036929	0.076268
545	682330052													-10.254169	-0.380612	1.165104	0.057074	-0.956256	0.286908	0.061317	0.290191	0.955002	-0.996485	-0.036914	0.075197
546	682338385													-10.139875	-0.521208	0.669903	0.056820	-0.956342	0.286672	0.061353	0.289938	0.955077	-0.996498	-0.036680	0.075149
547	682346718													-9.777185	-0.529515	0.012835	0.056287	-0.956430	0.286485	0.061826	0.289728	0.955110	-0.996499	-0.036048	0.075440
548	682355051													-9.664985	-0.426334	0.022745	0.055366	-0.956648	0.285935	0.061408	0.289094	0.955329	-0.996576	-0.035334	0.074752
549	682363384													-9.779501	-0.131890	0.537222	0.054588	-0.956917	0.285184	0.061425	0.288287	0.955572	-0.996618	-0.034646	0.074516
550	682371717													-9.776562	0.015576	0.746343	0.054054	-0.957135	0.284553	0.062343	0.287649	0.955705	-0.996590	-0.033920	0.075220
551	682380050													-9.797204	0.000952	0.580707	0.053493	-0.957288	0.284144	0.063454	0.287235	0.955756	-0.996550	-0.033097	0.076109
552	682388383													-9.808855	-0.194980	0.967280	0.052928	-0.957391	0.283903	0.064981	0.287001	0.955724	-0.996482	-0.032136	0.077402
553	682396716													-9.822387	-0.628278	1.305242	0.052104	-0.957574	0.283437	0.065893	0.286501	0.955811	-0.996465	-0.031125	0.078025
554	682405049													-9.958794	-0.711516	1.511231	0.051092	-0.957808	0.282831	0.065581	0.285807	0.956041	-0.996538	-0.030297	0.077416
555	682413382													-10.287973	-0.671196	0.899940	0.050319	-0.958001	0.282316	0.065620	0.285234	0.956209	-0.996575	-0.029590	0.077217
556	682421715													-10.112135	-0.635310	0.203414	0.049647	-0.958032	0.282329	0.066485	0.285221	0.956153	-0.996552	-0.028700	0.077855
557	682430048													-9.700715	-0.596363	-0.175654	0.048631	-0.958073	0.282369	0.067030	0.285196	0.956122	-0.996565	-0.027570	0.078089
558	682438381													-9.468157	-0.484105	-0.043356	0.047367	-0.958171	0.282249	0.066809	0.284973	0.956204	-0.996641	-0.026435	0.077513
559	682446714													-9.474768	-0.373604	0.505229	0.046273	-0.958220	0.282266	0.066678	0.284901	0.956235	-0.996701	-0.025427	0.077075
560	682455047													-9.690452	-0.197127	0.702513	0.045313	-0.958196	0.282500	0.066772	0.285064	0.956180	-0.996739	-0.024465	0.076898
561	682463380													-9.951630	-0.249732	0.282266	0.044380	-0.958229	0.282538	0.067352	0.285043	0.956146	-0.996742	-0.023404	0.077189
562	682471713													-9.976585	-0.356651	0.186958	0.043337	-0.958410	0.282084	0.068102	0.284527	0.956246	-0.996737	-0.022230	0.077600
563	682480046													-9.962914	-0.602753	0.511921	0.042126	-0.958625	0.281538	0.068185	0.283890	0.956429	-0.996783	-0.021094	0.077323
564	682488379													-10.023509	-0.867257	0.689923	0.041000	-0.958714	0.281402	0.068229	0.283668	0.956492	-0.996827	-0.020016	0.077042
565	682496712													-10.002098	-0.795015	1.064976	0.039911	-0.958762	0.281394	0.068608	0.283584	0.956490	-0.996845	-0.018869	0.077097
566	682505045													-9.903872	-0.521443	0.929486	0.038731	-0.958814	0.281382	0.069290	0.283492	0.956468	-0.996844	-0.017548	0.077416
567	682513378													-9.743619	-0.224591	0.603194	0.037453	-0.958927	0.281170	0.070402	0.283200	0.956473	-0.996815	-0.016027	0.078117
568	682521711													-9.736547	-0.141038	0.138065	0.036217	-0.958922	0.281349	0.071539	0.283299	0.956360	-0.996780	-0.014509	0.078860
569	682530044													-9.762809	-0.202107	0.245743	0.035042	-0.958616	0.282537	0.072305	0.284402	0.955975	-0.996767	-0.013070	0.079279
570	682538377													-9.819144	-0.365458	0.444594	0.033856	-0.958418	0.283352	0.073355	0.285133	0.955677	-0.996731	-0.011570	0.079958
571	682546710													-9.881462	-0.581011	0.502973	0.032780	-0.957967	0.284999	0.074276	0.286699	0.955137	-0.996699	-0.010140	0.080552
572	682555043													-9.823795	-0.513489	0.238766	0.031682	-0.957638	0.286227	0.075224	0.287843	0.954719	-0.996663	-0.008717	0.081157
573	682563376													-9.937874	-0.370416	0.302822	0.030670	-0.957201	0.287794	0.076218	0.289331	0.954190	-0.996619	-0.007329	0.081830
574	682571709													-9.903393	-0.359392	0.596137	0.029766	-0.956764	0.289337	0.077916	0.290805	0.953604	-0.996515	-0.005841	0.083203
575	682580042													-9.806828	-0.252063	0.429611	0.029015	-0.956063	0.291722	0.079291	0.293127	0.952780	-0.996429	-0.004514	0.084312
576	682588375													-9.795230	-0.307031	0.762751	0.028157	-0.955489	0.293682	0.080495	0.295011	0.952097	-0.996357	-0.003168	0.085218
577	682596708													-9.652437	-0.294850	0.744916	0.027225	-0.954745	0.296178	0.081003	0.297421	0.951304	-0.996342	-0.001908	0.085435
578	682605041													-9.623545	-0.315704	0.407225	0.026071	-0.954232	0.297929	0.081010	0.299067	0.950787	-0.996372	-0.000653	0.085100
579	682613374													-9.724702	-0.330311	0.279898	0.024958	-0.953776	0.299482	0.080547	0.300519	0.950368	-0.996438	0.000403	0.084324
580	682621707													-9.741881	-0.343191	0.249846	0.023933	-0.953705	0.299789	0.080284	0.300740	0.950321	-0.996485	0.001325	0.083765
581	682630040													-9.708281	-0.309724	0.445437	0.023100	-0.953617	0.300134	0.079815	0.301015	0.950273	-0.996542	0.002004	0.083067
582	682638373													-9.777575	-0.393756	0.769290	0.022344	-0.953581	0.300305	0.079394	0.301124	0.950274	-0.996593	0.002610	0.082437
583	682646706													-9.948871	-0.434133	1.094732	0.021737	-0.953496	0.300622	0.079267	0.301390	0.950200	-0.996616	0.003175	0.082132
584	682655039													-9.893699	-0.278361	0.971556	0.021066	-0.953455	0.300797	0.079494	0.301509	0.950144	-0.996613	0.003896	0.082146
585	682663372													-9.967598	-0.316157	0.770443	0.020477	-0.953072	0.302049	0.079517	0.302708	0.949760	-0.996623	0.004570	0.081984
586	682671705													-10.047866	-0.406810	0.711444	0.019844	-0.952663	0.303379	0.080154	0.303978	0.949301	-0.996585	0.005479	0.082392
587	682680038													-9.915415	-0.366041	0.580548	0.019282	-0.952099	0.305182	0.080770	0.305725	0.948688	-0.996546	0.006357	0.082796
588	682688371													-9.790194	-0.213897	0.870657	0.018584	-0.951590	0.306806	0.081493	0.307280	0.948123	-0.996501	0.007383	0.083259
589	682696704													-9.817148	-0.013228	0.637774	0.017859	-0.951088	0.308404	0.082229	0.308805	0.947564	-0.996453	0.008437	0.083722
590	682705037													-9.933260	0.171077	0.522494	0.017088	-0.950802	0.309328	0.083571	0.309649	0.947171	-0.996355	0.009666	0.084751
591	682713370													-9.883793	0.225144	0.879747	0.016210	-0.950446	0.310466	0.084899	0.310693	0.946711	-0.996258	0.011013	0.085729
592	682721703													-9.716945	0.189829	1.033524	0.014992	-0.949962	0.312006	0.085813	0.312112	0.946162	-0.996198	0.012589	0.086199
593	682730036													-9.791246	-0.155345	1.003055	0.013690	-0.949300	0.314072	0.086331	0.314051	0.945473	-0.996172	0.014171	0.086253
594	682738369													-9.817372	-0.387522	0.553691	0.012416	-0.948596	0.316245	0.087478	0.316087	0.944689	-0.996089	0.015935	0.086905
595	682746702													-9.730665	-0.505542	0.443111	0.011149	-0.947802	0.318664	0.088464	0.318369	0.943830	-0.996017	0.017668	0.087396
596	682755035													-9.703977	-0.503203	0.380344	0.009891	-0.947056	0.320916	0.089204	0.320488	0.943043	-0.995964	0.019299	0.087651
597	682763368													-9.818386	-0.368632	0.508139	0.008775	-0.946316	0.323123	0.089779	0.322576	0.942276	-0.995923	0.020741	0.087790
598	682771701													-9.906236	-0.218343	0.666791	0.007697	-0.945610	0.325213	0.091006	0.324535	0.941485	-0.995821	0.022350	0.088554
599	682780034													-9.893358	-0.041982	0.701872	0.006783	-0.944702	0.327859	0.092525	0.327053	0.940465	-0.995687	0.023956	0.089627
600	682788367													-9.860796	0.155763	0.820869	0.005750	-0.943708	0.330731	0.094381	0.329772	0.939331	-0.995520	0.025813	0.090965
601	682796700													-9.675902	0.427271	1.056341	0.004356	-0.942543	0.334056	0.095669	0.332920	0.938090	-0.995404	0.027872	0.091623
602	682805033													-9.701152	0.594909	1.376244	0.002846	-0.940992	0.338416	0.097258	0.337074	0.936441	-0.995255	0.030248	0.092478
603	682813366													-9.778333	0.629892	1.176114	0.001386	-0.939502	0.342541	0.099266	0.340979	0.934815	-0.995060	0.032707	0.093733
604	682821699													-9.748884	0.789749	0.396893	-0.000251	-0.938186	0.346132	0.101665	0.344315	0.933334	-0.994819	0.035424	0.095294
605	682830032													-9.682251	1.009486	0.272032	-0.002023	-0.937124	0.348991	0.103798	0.346910	0.932137	-0.994596	0.038110	0.096570
606	682838365													-9.890929	1.149027	0.542560	-0.003900	-0.936211	0.351417	0.106314	0.349040	0.931058	-0.994325	0.040992	0.098171
607	682846698													-9.922785	1.257888	0.626981	-0.005699	-0.935364	0.353641	0.109218	0.350949	0.930003	-0.994002	0.043924	0.100158
608	682855031													-9.731108	1.034687	0.659334	-0.007556	-0.934299	0.356411	0.112387	0.353369	0.928708	-0.993636	0.047073	0.102332
609	682863364													-9.562559	0.758340	0.871126	-0.009473	-0.932922	0.359953	0.115143	0.356557	0.927151	-0.993304	0.050228	0.104042
610	682871697													-9.615612	0.574469	0.925083	-0.011348	-0.931364	0.363912	0.118026	0.360144	0.925401	-0.992946	0.053453	0.105838
611	682880030													-9.589802	0.602597	0.997355	-0.013243	-0.929888	0.367604	0.120823	0.363454	0.923744	-0.992586	0.056649	0.107539
612	682888363													-9.618312	0.756083	1.114188	-0.015162	-0.928213	0.371741	0.123793	0.367181	0.921875	-0.992192	0.059997	0.109339
613	682896696													-9.756777	0.958527	0.830164	-0.016916	-0.926413	0.376129	0.127093	0.371139	0.919839	-0.991747	0.063364	0.111463
614	682905029													-9.745679	1.199012	0.614968	-0.018559	-0.924343	0.381112	0.130748	0.375661	0.917488	-0.991242	0.066857	0.113884
615	682913362													-9.585270	1.278435	0.655507	-0.020264	-0.922275	0.386002	0.134086	0.380087	0.915180	-0.990763	0.070303	0.115962
616	682921695													-9.456603	1.283754	0.663560	-0.022190	-0.920145	0.390948	0.137158	0.384545	0.912860	-0.990301	0.073878	0.117672
617	682930028													-9.497765	1.268478	0.554377	-0.024355	-0.918384	0.394940	0.139534	0.388068	0.911007	-0.989918	0.077295	0.118694
618	682938361													-9.598787	1.204856	0.582008	-0.026430	-0.916807	0.398456	0.142167	0.391096	0.909303	-0.989490	0.080680	0.120003
619	682946694													-9.619180	1.290954	0.151567	-0.028547	-0.915705	0.400837	0.144742	0.392987	0.908081	-0.989057	0.083941	0.121323
620	682955027													-9.706194	1.153934	0.646048	-0.030499	-0.914695	0.402993	0.147492	0.394648	0.906917	-0.988593	0.087098	0.122874
621	682963360													-9.680094	0.824313	0.948995	-0.032484	-0.913833	0.404788	0.149798	0.395976	0.905960	-0.988183	0.090065	0.124027
622	682971693													-9.811545	0.636246	1.193506	-0.034239	-0.913001	0.406518	0.152072	0.397261	0.905018	-0.987776	0.092807	0.125240
623	682980026													-9.850276	0.488590	1.048381	-0.035823	-0.912304	0.407945	0.154388	0.398254	0.904189	-0.987361	0.095373	0.126582
624	682988359													-9.818799	0.503641	1.071936	-0.037113	-0.911391	0.409865	0.156542	0.399782	0.903144	-0.986974	0.097679	0.127834
625	682996692													-9.859965	0.676905	1.238535	-0.038367	-0.910433	0.411874	0.158371	0.401428	0.902094	-0.986634	0.099840	0.128784
626	683005025													-9.921792	0.667737	1.027499	-0.039492	-0.909136	0.414623	0.160180	0.403821	0.900706	-0.986297	0.101985	0.129678
627	683013358													-9.902352	0.612647	0.636960	-0.040513	-0.908046	0.416906	0.161708	0.405789	0.899548	-0.986007	0.103861	0.130398
628	683021691													-9.881820	0.584034	1.013921	-0.041307	-0.906849	0.419426	0.163090	0.408034	0.898281	-0.985746	0.105509	0.131044
629	683030024													-9.824090	0.716492	0.966378	-0.041971	-0.905824	0.421569	0.164131	0.409957	0.897216	-0.985545	0.106850	0.131468
630	683038357													-9.755145	0.971489	1.015492	-0.042665	-0.904593	0.424137	0.164828	0.412333	0.895998	-0.985399	0.108137	0.131510
631	683046690													-9.735007	1.150133	1.036299	-0.043456	-0.903705	0.425944	0.165145	0.413984	0.895178	-0.985311	0.109243	0.131253
632	683055023													-9.820541	1.143728	1.076880	-0.043984	-0.902779	0.427849	0.165767	0.415732	0.894253	-0.985183	0.110257	0.131366
633	683063356													-9.940800	0.876220	1.188858	-0.044420	-0.902071	0.429295	0.166469	0.417028	0.893519	-0.985046	0.111155	0.131642
634	683071689													-9.929118	0.624966	0.923692	-0.044615	-0.901213	0.431074	0.167402	0.418658	0.892582	-0.984879	0.111985	0.132187
635	683080022													-9.921982	0.622619	1.034592	-0.044819	-0.900660	0.432206	0.167988	0.419686	0.891989	-0.984770	0.112583	0.132490
636	683088355													-9.889625	0.550217	0.878565	-0.044819	-0.899985	0.433610	0.168834	0.420979	0.891219	-0.984625	0.113151	0.133081
637	683096688													-9.876090	0.220093	0.931548	-0.044966	-0.899437	0.434732	0.169433	0.422001	0.890622	-0.984515	0.113705	0.133418
638	683105021													-9.775568	0.218599	0.812286	-0.044863	-0.898627	0.436413	0.170499	0.423556	0.889680	-0.984336	0.114322	0.134213
639	683113354													-9.724340	0.309524	1.389320	-0.044764	-0.897813	0.438095	0.171550	0.425112	0.888735	-0.984158	0.114938	0.134990
640	683121687													-9.791406	0.225245	1.467047	-0.044394	-0.896301	0.441219	0.173193	0.428062	0.886999	-0.983887	0.115793	0.136229
641	683130020													-9.813633	0.276299	1.017694	-0.043908	-0.894719	0.444466	0.174809	0.431151	0.885184	-0.983623	0.116563	0.137474
642	683138353													-9.784052	0.467987	0.724519	-0.043346	-0.892921	0.448123	0.176279	0.434671	0.883168	-0.983385	0.117277	0.138562
643	683146686													-9.912844	0.719294	0.585758	-0.043055	-0.891362	0.451242	0.176936	0.437718	0.881531	-0.983280	0.117795	0.138868
644	683155019													-9.879023	1.025474	0.565862	-0.042811	-0.889750	0.454437	0.177352	0.440862	0.879879	-0.983216	0.118263	0.138925
645	683163352													-9.874650	1.134027	0.769140	-0.042940	-0.888337	0.457179	0.177060	0.443591	0.878565	-0.983263	0.118674	0.138241
646	683171685													-9.931285	1.120670	0.726736	-0.042965	-0.886633	0.460474	0.177013	0.446852	0.876921	-0.983270	0.119186	0.137747
647	683180018													-9.846379	0.970358	0.942263	-0.043152	-0.885015	0.463558	0.176496	0.449939	0.875445	-0.983355	0.119593	0.136786
648	683188351													-9.913607	0.769976	1.025397	-0.043082	-0.882989	0.467413	0.176302	0.453786	0.873496	-0.983393	0.120038	0.136123
649	683196684													-9.821656	0.669244	0.851980	-0.042780	-0.881061	0.471064	0.176226	0.457449	0.871599	-0.983420	0.120301	0.135696
650	683205017													-9.863106	0.555153	1.028063	-0.042099	-0.878670	0.475569	0.176606	0.461951	0.869144	-0.983381	0.120579	0.135731
651	683213350													-9.867090	0.654225	1.439481	-0.041281	-0.876097	0.480365	0.177086	0.466748	0.866480	-0.983329	0.120835	0.135877
652	683221683													-9.889862	0.900034	1.065172	-0.040250	-0.872987	0.486080	0.178075	0.472419	0.863197	-0.983193	0.121302	0.136442
653	683230016													-9.802005	0.869073	0.933960	-0.039407	-0.869981	0.491509	0.178779	0.477815	0.860076	-0.983100	0.121764	0.136706
654	683238349													-9.819491	0.972504	1.058685	-0.038725	-0.866903	0.496971	0.179298	0.483244	0.856929	-0.983032	0.122290	0.136720
655	683246682													-9.736118	1.409918	1.208383	-0.038077	-0.864138	0.501812	0.179626	0.488077	0.854117	-0.982998	0.122660	0.136638
656	683255015													-9.719150	1.581477	0.715872	-0.037113	-0.861309	0.506725	0.180557	0.492949	0.851117	-0.982864	0.123080	0.137221
657	683263348													-9.691514	1.641256	0.306360	-0.036360	-0.858851	0.510933	0.181049	0.497150	0.848566	-0.982802	0.123358	0.137418
658	683271681													-9.768120	1.464178	0.233025	-0.035577	-0.856295	0.515259	0.181782	0.501440	0.845880	-0.982695	0.123759	0.137820
659	683280014													-9.822716	1.177227	0.347769	-0.034862	-0.854285	0.518635	0.182380	0.504797	0.843752	-0.982610	0.124004	0.138206
660	683288347													-9.919683	0.916747	0.793048	-0.034004	-0.852113	0.522252	0.183436	0.508355	0.841383	-0.982443	0.124410	0.139022
661	683296680													-9.880814	0.721183	0.817568	-0.032945	-0.850008	0.525738	0.184911	0.511759	0.838994	-0.982203	0.124855	0.140316
662	683305013													-9.752382	0.553189	1.136269	-0.031871	-0.847337	0.530099	0.186698	0.515987	0.836004	-0.981900	0.125612	0.141751
663	683313346													-9.730666	0.518158	1.090928	-0.031068	-0.844455	0.534724	0.188092	0.520485	0.832896	-0.981660	0.126454	0.142665
664	683321679													-9.806164	0.697529	0.989122	-0.029835	-0.841233	0.539849	0.189932	0.525478	0.829336	-0.981344	0.127277	0.144099
665	683330012													-9.576543	1.229205	1.141958	-0.028694	-0.837856	0.545137	0.191202	0.530691	0.825717	-0.981131	0.127924	0.144972
666	683338345													-9.560966	1.659842	0.736233	-0.027750	-0.833931	0.551170	0.192281	0.536632	0.821617	-0.980948	0.128780	0.145457
667	683346678													-9.717511	1.999102	0.331758	-0.027085	-0.830059	0.557017	0.192963	0.542400	0.817660	-0.980832	0.129630	0.145480
668	683355011													-9.732265	2.117752	0.351966	-0.026272	-0.826166	0.562814	0.194214	0.548063	0.813577	-0.980607	0.130681	0.146054
669	683363344													-9.722754	1.815403	0.270988	-0.025409	-0.822927	0.567578	0.195530	0.552704	0.810115	-0.980369	0.131563	0.146863
670	683371677													-9.529557	1.769745	0.373508	-0.024499	-0.820005	0.571831	0.197023	0.556824	0.806926	-0.980093	0.132433	0.147919
671	683380010													-9.530499	1.687095	0.585784	-0.023820	-0.817580	0.575323	0.198188	0.560202	0.804298	-0.979875	0.133180	0.148690
672	683388343													-9.568424	1.731683	1.279756	-0.022906	-0.815167	0.578774	0.199922	0.563497	0.801562	-0.979544	0.134071	0.150062
673	683396676													-9.507364	1.959912	1.182856	-0.021965	-0.812657	0.582328	0.201624	0.566900	0.798732	-0.979217	0.134956	0.151400
674	683405009													-9.583199	2.178975	0.700638	-0.020806	-0.809435	0.586840	0.203443	0.571259	0.795157	-0.978866	0.135932	0.152788
675	683413342													-9.664846	2.124148	0.457077	-0.019435	-0.805773	0.591906	0.205831	0.576111	0.791030	-0.978395	0.137206	0.154656
676	683421675													-10.109538	1.765583	0.194572	-0.017972	-0.802245	0.596724	0.208903	0.580635	0.786907	-0.977771	0.138800	0.157156
677	683430008													-10.339305	1.679389	0.024201	-0.016742	-0.799176	0.600864	0.211871	0.584466	0.783269	-0.977154	0.140419	0.159537
678	683438341													-10.143555	1.390936	0.422001	-0.015746	-0.796662	0.604220	0.214167	0.587582	0.780307	-0.976670	0.141691	0.161367
679	683446674													-9.676960	1.220026	0.650872	-0.014724	-0.794767	0.606736	0.215951	0.589953	0.778024	-0.976293	0.142481	0.162944
680	683455007													-9.430374	1.399068	0.878802	-0.013660	-0.793158	0.608863	0.217212	0.592025	0.776096	-0.976029	0.142854	0.164196
681	683463340													-9.617789	1.485790	1.229994	-0.012426	-0.791498	0.611045	0.218643	0.594154	0.774065	-0.975726	0.143219	0.165672
682	683471673													-9.802999	1.378734	1.227232	-0.011286	-0.789562	0.613568	0.219897	0.596626	0.771805	-0.975458	0.143632	0.166889
683	683480006													-9.885952	1.158746	0.946651	-0.010143	-0.787311	0.616472	0.220888	0.599510	0.769283	-0.975246	0.143974	0.167827
684	683488339													-9.893268	0.908140	0.858419	-0.009028	-0.784656	0.619866	0.221726	0.602889	0.766396	-0.975067	0.144359	0.168536
685	683496672													-9.935990	0.839198	1.302479	-0.008099	-0.781793	0.623486	0.222271	0.606501	0.763382	-0.974951	0.144766	0.168858
686	683505005													-10.009056	0.755586	1.636496	-0.006803	-0.778800	0.627235	0.222991	0.610274	0.760159	-0.974797	0.145040	0.169513
687	683513338													-9.828547	0.872310	1.344462	-0.004970	-0.775796	0.630965	0.224441	0.614009	0.756716	-0.974475	0.145375	0.171069
688	683521671													-9.774488	1.123923	1.218508	-0.003036	-0.772663	0.634810	0.225924	0.617869	0.753124	-0.974140	0.145706	0.172687
689	683530004													-9.900897	1.341268	1.513303	-0.000971	-0.769734	0.638364	0.227344	0.621479	0.749719	-0.973814	0.145856	0.174391
690	683538337													-9.975510	1.301172	1.726414	0.001037	-0.766850	0.641826	0.228681	0.625000	0.746378	-0.973501	0.146000	0.176013
691	683546670													-10.019180	1.129166	1.400997	0.003090	-0.764173	0.645003	0.230256	0.628219	0.743185	-0.973125	0.146220	0.177897
692	683555003													-10.060008	0.956176	1.290350	0.005179	-0.761874	0.647704	0.231731	0.630996	0.740368	-0.972766	0.146259	0.179817
693	683563336													-10.134611	0.719571	1.340239	0.007223	-0.759599	0.650352	0.233291	0.633702	0.737561	-0.972380	0.146394	0.181784
694	683571669													-9.882718	0.386731	1.652372	0.008952	-0.756985	0.653370	0.234489	0.636767	0.734536	-0.972078	0.146633	0.183205
695	683580002													-9.856319	0.112253	1.603818	0.010564	-0.753889	0.656916	0.235266	0.640385	0.731134	-0.971874	0.146826	0.184130
696	683588335													-9.910711	-0.024556	1.748853	0.012211	-0.750729	0.660498	0.235833	0.644075	0.727702	-0.971717	0.146881	0.184911
697	683596668													-10.096398	-0.083652	1.981190	0.014206	-0.747620	0.663975	0.236635	0.647692	0.724223	-0.971495	0.146832	0.186114
698	683605001													-10.281757	0.092564	1.810240	0.016343	-0.744422	0.667510	0.237351	0.651405	0.720650	-0.971286	0.146657	0.187335
699	683613334													-10.365205	0.077954	1.710333	0.018495	-0.741067	0.671176	0.237593	0.655319	0.717012	-0.971189	0.146206	0.188192
700	683621667													-10.367764	-0.125689	1.609669	0.020737	-0.737500	0.675029	0.237720	0.659448	0.713174	-0.971112	0.145679	0.188994
701	683630000													-10.371104	-0.407505	1.599449	0.023084	-0.733795	0.678979	0.238085	0.663655	0.709139	-0.970970	0.145285	0.190025
702	683638333													-10.338383	-0.671566	1.724232	0.025493	-0.729991	0.682981	0.238277	0.667950	0.705030	-0.970863	0.144765	0.190968
703	683646666													-10.120411	-0.906142	2.064831	0.028093	-0.726019	0.687101	0.238868	0.672334	0.700649	-0.970646	0.144443	0.192311
704	683654999													-9.840611	-0.902948	2.513816	0.031043	-0.721709	0.691501	0.239742	0.677014	0.695827	-0.970340	0.144181	0.194041
705	683663332													-9.714574	-0.717619	2.803952	0.034448	-0.716855	0.696370	0.240843	0.682203	0.690357	-0.969952	0.143935	0.196151
706	683671665													-9.560490	-0.402708	2.866172	0.038350	-0.711303	0.701839	0.242500	0.687985	0.684011	-0.969393	0.143964	0.198875
707	683679998													-9.399242	-0.121947	2.768277	0.042735	-0.704967	0.707951	0.244917	0.694369	0.676659	-0.968602	0.144472	0.202332
708	683688331													-9.369226	0.087184	2.762710	0.047605	-0.697934	0.714578	0.247473	0.701327	0.668504	-0.967725	0.145015	0.206106
709	683696664													-9.546024	0.423418	2.819817	0.052854	-0.690386	0.721507	0.250545	0.708575	0.659658	-0.966661	0.145905	0.210424
710	683704997													-9.862930	0.692975	2.902061	0.058499	-0.682300	0.728728	0.253871	0.716147	0.650141	-0.965468	0.146970	0.215109
711	683713330													-10.067526	1.019187	2.950358	0.064600	-0.673524	0.736337	0.257326	0.724167	0.639816	-0.964163	0.148146	0.220097
712	683721663													-9.970001	1.269081	2.851958	0.071092	-0.663932	0.744406	0.261192	0.732645	0.628498	-0.962665	0.149752	0.225499
713	683729996													-9.616831	1.575942	2.889603	0.077860	-0.653614	0.752813	0.265521	0.741427	0.616267	-0.960956	0.151905	0.231276
714	683738329													-9.355986	1.906077	2.802847	0.084817	-0.642882	0.761255	0.269635	0.750311	0.603597	-0.959220	0.154066	0.236983
715	683746662													-9.413450	2.247000	2.715925	0.091583	-0.631992	0.769545	0.273798	0.758988	0.590738	-0.957417	0.156599	0.242548
716	683754995													-9.720278	2.394627	2.480391	0.097901	-0.621022	0.777655	0.277591	0.767436	0.577915	-0.955698	0.159292	0.247523
717	683763328													-9.835078	2.296417	2.179661	0.103477	-0.610263	0.785412	0.280561	0.775493	0.565593	-0.954242	0.161830	0.251462
718	683771661													-9.811014	2.017042	1.920123	0.108250	-0.599864	0.792745	0.282804	0.783066	0.553922	-0.953050	0.164229	0.254411
719	683779994													-9.682129	1.652233	1.765375	0.112372	-0.589860	0.799649	0.284596	0.790138	0.542851	-0.952039	0.166576	0.256661
720	683788327													-9.544930	1.317099	1.980937	0.116137	-0.580522	0.805919	0.285607	0.796659	0.532695	-0.951284	0.168310	0.258323
721	683796660													-9.375120	1.159239	2.342888	0.119778	-0.571864	0.811557	0.286451	0.802584	0.523264	-0.950578	0.169796	0.259943
722	683804993													-9.254723	1.109885	2.689069	0.123681	-0.563698	0.816668	0.287066	0.808123	0.514325	-0.949893	0.170826	0.261769
723	683813326													-9.131915	1.318657	2.758945	0.128239	-0.555788	0.821374	0.287411	0.813497	0.505586	-0.949184	0.171236	0.264062
724	683821659													-8.859016	1.444312	2.649153	0.133394	-0.547684	0.825983	0.287747	0.818932	0.496539	-0.948371	0.171439	0.266835
725	683829992													-8.519507	1.464172	2.378744	0.138741	-0.539054	0.830766	0.288098	0.824567	0.486918	-0.947497	0.171787	0.269702
726	683838325													-8.308736	1.433260	2.384154	0.143992	-0.530093	0.835624	0.287750	0.830365	0.477173	-0.946819	0.171741	0.272100
727	683846658													-8.205576	1.397177	2.683395	0.148882	-0.520868	0.840554	0.286930	0.836212	0.467355	-0.946311	0.171600	0.273949
728	683854991													-8.156150	1.411779	2.829921	0.153577	-0.511153	0.845658	0.285478	0.842268	0.457259	-0.946000	0.171192	0.275276
729	683863324													-8.185488	1.392982	2.818704	0.158118	-0.500885	0.850948	0.283215	0.848585	0.446869	-0.945932	0.170343	0.276035
730	683871657													-8.264246	1.420984	2.744535	0.162653	-0.490280	0.856253	0.280623	0.854958	0.436231	-0.945936	0.169330	0.276645
731	683879990													-8.124045	1.401120	2.339058	0.167200	-0.479715	0.861346	0.278034	0.861128	0.425623	-0.945908	0.168319	0.277358
732	683888323													-8.094783	1.427183	1.827127	0.171470	-0.469724	0.866001	0.274865	0.866925	0.415802	-0.946069	0.166736	0.277763
733	683896656													-8.222155	1.471519	1.512447	0.175108	-0.460674	0.870124	0.271483	0.872109	0.407091	-0.946380	0.164939	0.277779
734	683904989													-8.359999	1.604491	1.315943	0.178236	-0.452623	0.873707	0.267793	0.876723	0.399555	-0.946847	0.162757	0.277473
735	683913322													-8.554708	1.796188	1.134142	0.181007	-0.445641	0.876721	0.263640	0.880806	0.393287	-0.947486	0.159951	0.276921
736	683921655													-8.717699	2.007748	1.086115	0.183509	-0.439840	0.879127	0.259317	0.884297	0.388297	-0.948198	0.156717	0.276334
737	683929988													-8.816907	2.152455	1.251674	0.185760	-0.435196	0.880964	0.255084	0.887189	0.384484	-0.948907	0.153298	0.275816
738	683938321													-8.846156	2.290670	1.498766	0.187626	-0.431554	0.882359	0.250698	0.889601	0.381787	-0.949709	0.149573	0.275101
739	683946654													-8.851609	2.336725	1.751986	0.189029	-0.428798	0.883403	0.245914	0.891626	0.380169	-0.950681	0.145379	0.273990
740	683954987													-8.849978	2.302837	2.147617	0.189873	-0.426853	0.884163	0.240987	0.893258	0.379492	-0.951774	0.141016	0.272472
741	683963320													-8.858098	2.187026	2.557932	0.190390	-0.425565	0.884673	0.236351	0.894520	0.379437	-0.952832	0.136853	0.270890
742	683971653													-8.838024	2.017465	2.842890	0.190645	-0.424708	0.885030	0.231646	0.895568	0.379866	-0.953936	0.132594	0.269118
743	683979986													-8.886376	1.789931	2.959658	0.190744	-0.424053	0.885322	0.227325	0.896446	0.380404	-0.954955	0.128696	0.267390
744	683988319													-8.986176	1.539945	3.029405	0.190858	-0.423576	0.885526	0.223274	0.897196	0.381036	-0.955888	0.124991	0.265811
745	683996652													-9.039588	1.341232	3.008821	0.190909	-0.423420	0.885590	0.219278	0.897781	0.381978	-0.956803	0.121267	0.264241
746	684004985													-9.145576	1.171177	2.992956	0.190824	-0.423437	0.885600	0.215422	0.898250	0.383067	-0.957695	0.117679	0.262625
747	684013318													-9.212680	0.949339	2.903387	0.190561	-0.423314	0.885715	0.211810	0.898727	0.383962	-0.958552	0.114436	0.260925
748	684021651													-9.254642	0.827033	3.069963	0.190268	-0.422961	0.885947	0.208167	0.899294	0.384627	-0.959408	0.111243	0.259154
749	684029984													-9.477874	0.877455	2.906449	0.189928	-0.422193	0.886386	0.204803	0.899995	0.384792	-0.960200	0.108451	0.257400
750	684038317													-9.478090	0.966262	3.271844	0.189518	-0.420970	0.887055	0.201596	0.900864	0.384452	-0.960959	0.105966	0.255595
751	684046650													-9.432722	1.093340	3.706786	0.189430	-0.419166	0.887928	0.198568	0.901970	0.383432	-0.961606	0.103681	0.254094
752	684054983													-9.400036	1.496022	4.136197	0.189302	-0.417284	0.888841	0.195831	0.903068	0.382256	-0.962193	0.101700	0.252670
753	684063316													-9.447685	1.658711	4.588934	0.189222	-0.414925	0.889962	0.193505	0.904319	0.380476	-0.962679	0.100218	0.251407
754	684071649													-9.439907	1.558057	3.815189	0.188813	-0.411701	0.891545	0.190967	0.905936	0.377904	-0.963266	0.098902	0.249674
755	684079982													-9.613616	1.274930	3.366982	0.187658	-0.408050	0.893465	0.188346	0.907694	0.374989	-0.964007	0.097911	0.247191
756	684088315													-9.976923	1.055585	3.026576	0.186638	-0.404194	0.895429	0.185858	0.909513	0.371811	-0.964688	0.097028	0.244873
757	684096648													-10.204016	1.025939	2.824039	0.186091	-0.400121	0.897370	0.183672	0.911390	0.368283	-0.965212	0.096287	0.243093
758	684104981													-10.105097	1.042151	2.680868	0.185508	-0.396216	0.899222	0.181905	0.913136	0.364820	-0.965659	0.095896	0.241468
759	684113314													-10.088188	1.055845	2.861065	0.184847	-0.392995	0.900770	0.180629	0.914537	0.361934	-0.966025	0.095803	0.240035
760	684121647													-10.300882	1.208679	3.320151	0.184595	-0.390995	0.901692	0.179684	0.915421	0.360163	-0.966249	0.095536	0.239238
761	684129980													-10.407755	1.380267	3.557878	0.184376	-0.390062	0.902140	0.179367	0.915816	0.359317	-0.966350	0.095565	0.238819
762	684138313													-10.496111	1.431973	3.410489	0.183839	-0.389169	0.902635	0.179595	0.916127	0.358409	-0.966410	0.096219	0.238313
763	684146646													-9.926527	1.690138	3.275614	0.182503	-0.387393	0.903670	0.180257	0.916711	0.356579	-0.966540	0.097816	0.237132
764	684154979													-9.067466	1.950544	2.995469	0.181003	-0.384353	0.905268	0.181469	0.917719	0.353356	-0.966596	0.100320	0.235858
765	684163312													-8.626140	1.968457	2.533376	0.179985	-0.380325	0.907170	0.183154	0.919061	0.348972	-0.966468	0.103342	0.235075
766	684171645													-8.671825	1.682462	1.780747	0.179142	-0.376102	0.909096	0.184762	0.920464	0.344397	-0.966318	0.106270	0.234384
767	684179978													-9.010448	1.415173	1.310897	0.177695	-0.372481	0.910869	0.186220	0.921604	0.340542	-0.966306	0.109109	0.233127
768	684188311													-9.291913	1.156476	1.194398	0.175238	-0.369990	0.912359	0.187375	0.922294	0.338029	-0.966531	0.111718	0.230948
769	684196644													-9.509194	0.910608	1.416556	0.171800	-0.368731	0.913522	0.188047	0.922533	0.337004	-0.967018	0.113888	0.227830
770	684204977													-9.819967	0.797313	1.897158	0.168322	-0.368813	0.914136	0.188608	0.922284	0.337371	-0.967520	0.115626	0.224802
771	684213310													-9.883944	0.738630	2.487700	0.165490	-0.370505	0.913969	0.189346	0.921443	0.339251	-0.967864	0.116913	0.222643
772	684221643													-9.870872	0.943000	3.259474	0.163416	-0.373266	0.913218	0.190148	0.920222	0.342103	-0.968059	0.117741	0.221354
773	684229976													-9.881513	1.192288	3.178345	0.161984	-0.376511	0.912141	0.191238	0.918802	0.345299	-0.968085	0.118503	0.220834
774	684238309													-9.848206	1.358117	3.003632	0.160614	-0.380099	0.910894	0.192264	0.917246	0.348848	-0.968110	0.119102	0.220401
775	684246642													-9.690817	1.512812	2.832849	0.158861	-0.383290	0.909864	0.193394	0.915794	0.352022	-0.968174	0.120040	0.219610
776	684254975													-9.546925	1.559916	2.561582	0.156457	-0.385720	0.909253	0.194105	0.914646	0.354608	-0.968424	0.121009	0.217973
777	684263308													-9.604622	1.635724	2.986731	0.154053	-0.387299	0.908992	0.194851	0.913817	0.356332	-0.968659	0.122224	0.216241
778	684271641													-9.481583	1.535876	2.829355	0.152348	-0.387899	0.909024	0.195793	0.913377	0.356943	-0.968739	0.123601	0.215099
779	684279974													-9.261720	1.360715	2.463689	0.150817	-0.387957	0.909254	0.196588	0.913175	0.357022	-0.968817	0.124904	0.213990
780	684288307													-9.142423	1.240338	2.463910	0.149058	-0.387980	0.909535	0.197364	0.912976	0.357103	-0.968932	0.126280	0.212659
781	684296640													-9.227545	1.252147	2.320750	0.147355	-0.388153	0.909738	0.198358	0.912690	0.357284	-0.968989	0.127806	0.211483
782	684304973													-9.259927	1.220448	2.065370	0.145786	-0.388734	0.909743	0.199415	0.912240	0.357845	-0.969010	0.129248	0.210511
783	684313306													-9.347037	1.203954	2.035435	0.144435	-0.389409	0.909670	0.200560	0.911749	0.358455	-0.968976	0.130670	0.209789
784	684321639													-9.305878	1.247378	2.124461	0.143253	-0.389757	0.909708	0.201669	0.911398	0.358724	-0.968921	0.132071	0.209163
785	684329972													-9.298063	1.173913	2.042021	0.142112	-0.390116	0.909733	0.202567	0.911072	0.359046	-0.968902	0.133257	0.208499
786	684338305													-9.232295	1.335569	2.030273	0.140935	-0.390713	0.909659	0.203411	0.910655	0.359626	-0.968897	0.134351	0.207819
787	684346638													-9.151625	1.523183	1.574042	0.139459	-0.391043	0.909745	0.204291	0.910321	0.359974	-0.968926	0.135651	0.206839
788	684354971													-9.227297	1.661759	1.226862	0.137659	-0.391387	0.909872	0.205016	0.909983	0.360417	-0.969030	0.136924	0.205508
789	684363304													-9.379156	1.625657	1.287481	0.135818	-0.392252	0.909776	0.206014	0.909394	0.361332	-0.969078	0.138351	0.204322
790	684371637													-9.363130	1.492222	1.465959	0.134168	-0.394059	0.909240	0.207442	0.908375	0.363074	-0.969003	0.139901	0.203619
791	684379970													-9.260718	1.405962	1.597189	0.131994	-0.396736	0.908393	0.208897	0.906964	0.365758	-0.968989	0.141483	0.202591
792	684388303													-9.322227	1.322858	1.782217	0.129348	-0.399979	0.907351	0.210368	0.905278	0.369077	-0.969028	0.143138	0.201239
793	684396636													-9.306064	1.126449	1.658710	0.126639	-0.403485	0.906180	0.211913	0.903450	0.372654	-0.969049	0.144838	0.199916
794	684404969													-9.255686	1.139853	1.914301	0.123509	-0.407109	0.904991	0.212939	0.901602	0.376524	-0.969228	0.146203	0.198045
795	684413302													-9.401335	1.193441	1.895699	0.120065	-0.410392	0.903970	0.213587	0.899913	0.380181	-0.969518	0.147430	0.195703
796	684421635													-9.518539	0.974636	1.566981	0.116814	-0.413669	0.902902	0.213892	0.898271	0.383875	-0.969848	0.148282	0.193411
797	684429968													-9.678870	0.951867	2.049246	0.113896	-0.416694	0.901883	0.213747	0.896809	0.387357	-0.970227	0.148656	0.191210
798	684438301													-9.830875	1.105644	2.290637	0.111549	-0.419050	0.901085	0.213512	0.895675	0.390102	-0.970551	0.148877	0.189384
799	684446634													-9.938015	1.189820	2.002512	0.109720	-0.421244	0.900286	0.213396	0.894617	0.392585	-0.970785	0.149043	0.188049
800	684454967													-9.986441	1.402114	1.994186	0.108308	-0.423557	0.899371	0.213178	0.893543	0.395140	-0.970992	0.148929	0.187070
801	684463300													-9.975747	1.528177	1.973397	0.106680	-0.425724	0.898543	0.212841	0.892529	0.397605	-0.971246	0.148831	0.185826
802	684471633													-10.007979	1.473039	1.726309	0.104930	-0.427654	0.897832	0.212253	0.891643	0.399901	-0.971565	0.148606	0.184331
803	684479966													-9.885808	1.477862	1.347346	0.103047	-0.429449	0.897193	0.211310	0.890857	0.402146	-0.971972	0.148146	0.182547
804	684488299													-9.814850	1.317010	0.959187	0.100816	-0.431282	0.896567	0.210052	0.890072	0.404538	-0.972478	0.147541	0.180325
805	684496632													-9.810721	1.174763	1.057125	0.098424	-0.433823	0.895606	0.208633	0.888970	0.407681	-0.973029	0.146727	0.178005
806	684504965													-9.820070	1.167444	1.302462	0.096059	-0.436721	0.894454	0.206850	0.887750	0.411234	-0.973646	0.145515	0.175612
807	684513298													-9.832647	1.326985	1.594672	0.093650	-0.439556	0.893320	0.204957	0.886556	0.414741	-0.974280	0.144252	0.173116
808	684521631													-9.859762	1.379109	1.672154	0.091209	-0.442282	0.892226	0.202939	0.885414	0.418159	-0.974934	0.142928	0.170514
809	684529964													-10.022385	1.336566	1.561179	0.088926	-0.445284	0.890962	0.200877	0.884144	0.421827	-0.975572	0.141463	0.168071
810	684538297													-10.038390	1.369331	1.374729	0.086580	-0.448368	0.889646	0.198806	0.882814	0.425577	-0.976207	0.140021	0.165572
811	684546630													-10.091200	1.393438	1.326174	0.084445	-0.451371	0.888332	0.196875	0.881500	0.429184	-0.976785	0.138648	0.163301
812	684554963													-9.852483	1.453540	1.094482	0.082587	-0.454147	0.887091	0.194856	0.880310	0.432534	-0.977349	0.137133	0.161196
813	684563296													-9.782183	1.462272	0.915319	0.080931	-0.457090	0.885731	0.192937	0.879022	0.435999	-0.977868	0.135605	0.159329
814	684571629													-9.820162	1.617223	0.768441	0.079560	-0.460209	0.884239	0.191000	0.877653	0.439596	-0.978360	0.133915	0.157726
815	684579962													-9.899554	1.775066	0.822436	0.078049	-0.463475	0.882666	0.189123	0.876173	0.443343	-0.978847	0.132330	0.156039
816	684588295													-10.032154	1.919094	0.897548	0.076468	-0.466871	0.881013	0.187175	0.874613	0.447233	-0.979346	0.130704	0.154266
817	684596628													-9.979425	1.877569	0.990726	0.074772	-0.470211	0.879381	0.185262	0.873047	0.451072	-0.979840	0.129188	0.152392
818	684604961													-9.843528	1.824021	1.205874	0.072921	-0.473317	0.877869	0.183299	0.871579	0.454700	-0.980349	0.127755	0.150315
819	684613294													-9.894464	1.648825	1.051766	0.071088	-0.476234	0.876440	0.181374	0.870187	0.458125	-0.980841	0.126397	0.148237
820	684621627													-9.955890	1.505247	0.853635	0.069246	-0.479097	0.875026	0.179520	0.868797	0.461480	-0.981314	0.125129	0.146169
821	684629960													-9.877429	1.435787	0.796950	0.067203	-0.481839	0.873679	0.177584	0.867453	0.464746	-0.981808	0.123919	0.143863
822	684638293													-9.898165	1.414476	1.019002	0.065188	-0.484627	0.872288	0.175695	0.866066	0.468040	-0.982284	0.122746	0.141604
823	684646626													-9.802691	1.367833	0.882256	0.063097	-0.487365	0.870916	0.174005	0.864661	0.471258	-0.982721	0.121809	0.139361
824	684654959													-9.624951	1.167476	1.089093	0.061053	-0.490015	0.869573	0.172459	0.863275	0.474357	-0.983123	0.121005	0.137213
825	684663292													-9.459916	1.042302	1.240481	0.058994	-0.492711	0.868191	0.170923	0.861848	0.477497	-0.983517	0.120224	0.135059
826	684671625													-9.534580	1.057833	1.283125	0.057357	-0.495268	0.866845	0.169630	0.860484	0.480410	-0.983837	0.119488	0.133368
827	684679958													-9.601925	1.052725	0.909091	0.056156	-0.497528	0.865629	0.168638	0.859267	0.482931	-0.984077	0.118858	0.132155
828	684688291													-9.727749	1.099931	1.035470	0.055255	-0.499689	0.864441	0.167701	0.858109	0.485309	-0.984288	0.118152	0.131213
829	684696624													-9.826302	1.111832	1.143044	0.054659	-0.501726	0.863298	0.167008	0.857005	0.487494	-0.984439	0.117531	0.130635
830	684704957													-9.828670	1.161518	0.842109	0.054175	-0.503401	0.862353	0.166299	0.856109	0.489308	-0.984586	0.116900	0.130094
831	684713290													-9.879734	0.991706	0.877376	0.053407	-0.504652	0.861670	0.165316	0.855462	0.490770	-0.984794	0.116237	0.129115
832	684721623													-9.848764	0.839463	1.023257	0.052096	-0.505729	0.861118	0.163962	0.854919	0.492169	-0.985090	0.115550	0.127458
833	684729956													-9.850424	0.884770	1.093444	0.050731	-0.507090	0.860399	0.162487	0.854220	0.493868	-0.985406	0.114750	0.125731
834	684738289													-9.764695	0.948576	1.159001	0.049713	-0.508619	0.859555	0.160857	0.853461	0.495710	-0.985725	0.113623	0.124243
835	684746622													-9.597648	0.934599	1.286179	0.048765	-0.510089	0.858738	0.159157	0.852744	0.497490	-0.986048	0.112414	0.122769
836	684754955													-9.469208	0.985826	1.508930	0.047646	-0.511444	0.857994	0.157074	0.852119	0.499220	-0.986437	0.110983	0.120934
837	684763288													-9.532752	0.908804	1.720929	0.046446	-0.512317	0.857539	0.154486	0.851821	0.500534	-0.986903	0.109231	0.118709
838	684771621													-9.637239	0.933420	1.600477	0.045223	-0.512995	0.857199	0.151672	0.851655	0.501676	-0.987396	0.107326	0.116321
839	684779954													-9.719143	1.065450	1.360005	0.043935	-0.513400	0.857024	0.148704	0.851657	0.502562	-0.987905	0.105363	0.113762
840	684788287													-9.707870	1.198893	1.269743	0.042638	-0.513567	0.856989	0.145567	0.851809	0.503221	-0.988429	0.103293	0.111078
841	684796620													-9.530168	1.440744	0.809617	0.041321	-0.513595	0.857037	0.142560	0.852025	0.503717	-0.988923	0.101365	0.108424
842	684804953													-9.567125	1.619738	0.372040	0.040344	-0.513230	0.857302	0.139642	0.852477	0.503770	-0.989380	0.099392	0.106061
843	684813286													-9.988453	1.709561	0.217993	0.039517	-0.513087	0.857426	0.136906	0.852784	0.504000	-0.989796	0.097470	0.103944
844	684821619													-10.108531	1.708699	0.121691	0.038555	-0.513996	0.856926	0.134564	0.852423	0.505241	-0.990155	0.095832	0.102030
845	684829952													-9.915643	1.300175	0.214628	0.036935	-0.516042	0.855767	0.132298	0.851339	0.507661	-0.990522	0.094465	0.099715
846	684838285													-9.698165	0.778130	0.404003	0.034580	-0.519220	0.853941	0.129607	0.849566	0.511311	-0.990962	0.092996	0.096673
847	684846618													-9.416301	0.287635	0.998113	0.032046	-0.522906	0.851788	0.126790	0.847467	0.515484	-0.991412	0.091479	0.093457
848	684854951													-9.505312	-0.192763	1.432251	0.029627	-0.526434	0.849699	0.123958	0.845446	0.519477	-0.991845	0.089936	0.090304
849	684863284													-9.594966	-0.331652	1.795488	0.027674	-0.529618	0.847785	0.121371	0.843615	0.523051	-0.992221	0.088421	0.087627
850	684871617													-9.524662	-0.330574	1.547773	0.025877	-0.532210	0.846217	0.118662	0.842151	0.526024	-0.992598	0.086802	0.084945
851	684879950													-9.765218	-0.222828	1.174100	0.024167	-0.533963	0.845162	0.115812	0.841212	0.528156	-0.992977	0.085116	0.082169
852	684888283													-9.935840	-0.067613	0.677546	0.022629	-0.535130	0.844467	0.112849	0.840652	0.529688	-0.993354	0.083311	0.079412
853	684896616													-10.056885	0.113501	0.501640	0.021251	-0.535693	0.844146	0.110023	0.840461	0.530585	-0.993702	0.081600	0.076799
854	684904949													-10.159673	0.247455	0.436447	0.020435	-0.535784	0.844108	0.107530	0.840564	0.530932	-0.993992	0.079917	0.074789
855	684913282													-9.942723	0.537241	0.346777	0.019826	-0.535768	0.844133	0.105331	0.840719	0.531127	-0.994240	0.078383	0.073101
856	684921615													-9.721724	0.856125	0.403522	0.019086	-0.535933	0.844045	0.102950	0.840765	0.531523	-0.994503	0.076749	0.071221
857	684929948													-9.600378	1.061259	0.258957	0.018292	-0.536779	0.843524	0.100572	0.840374	0.532594	-0.994762	0.075093	0.069357
858	684938281													-9.572115	1.311797	0.115357	0.017331	-0.538538	0.842423	0.098180	0.839394	0.534582	-0.995018	0.073444	0.067422
859	684946614													-9.574787	1.422771	0.030698	0.016207	-0.540743	0.841032	0.095759	0.838115	0.537023	-0.995273	0.071833	0.065364
