// Start Time: Unknown
// Update Rate: 100.0Hz
//Filter Profile: human (46.1)
// Option Flags: AHS Disabled ICC Disabled
// Firmware Version: 4.0.2
PacketCounter	SampleTimeFine	Year	Month	Day	Second	UTC_Nano	UTC_Year	UTC_Month	UTC_Day	UTC_Hour	UTC_Minute	UTC_Second	UTC_Valid	Acc_X	Acc_Y	Acc_Z	Mat[1][1]	Mat[1][2]	Mat[1][3]	Mat[2][1]	Mat[2][2]	Mat[2][3]	Mat[3][1]	Mat[3][2]	Mat[3][3]
0	677851206													0.000000	0.000000	0.000000	-0.257911	0.202187	0.944776	0.359213	0.927829	-0.100500	-0.896910	0.313456	-0.311926
1	677859539													-8.419514	2.913250	-2.547663	-0.257868	0.201468	0.944942	0.359051	0.927960	-0.099865	-0.896988	0.313530	-0.311628
2	677867872													-8.476286	2.922038	-2.351833	-0.250352	0.195825	0.948144	0.358602	0.928430	-0.097067	-0.899294	0.315705	-0.302657
3	677876205													-8.584093	2.957820	-2.321036	-0.250353	0.195304	0.948251	0.358595	0.928486	-0.096558	-0.899296	0.315864	-0.302484
4	677884538													-8.622381	3.026494	-2.606148	-0.242896	0.188286	0.951604	0.356449	0.929678	-0.092965	-0.902189	0.316618	-0.292929
5	677892871													-8.553071	3.122862	-2.836141	-0.242824	0.187946	0.951690	0.356474	0.929700	-0.092648	-0.902199	0.316755	-0.292751
6	677901204													-8.560771	3.205405	-2.897706	-0.237469	0.181413	0.954305	0.354243	0.930926	-0.088819	-0.904500	0.316964	-0.285330
7	677909537													-8.645127	3.234960	-2.877666	-0.237361	0.181091	0.954393	0.354250	0.930950	-0.088540	-0.904526	0.317078	-0.285123
8	677917870													-8.738988	3.127574	-2.838826	-0.236246	0.176802	0.955473	0.353994	0.931394	-0.084819	-0.904918	0.318193	-0.282625
9	677926203													-8.822621	2.970464	-2.886702	-0.236095	0.176057	0.955648	0.354142	0.931403	-0.084099	-0.904899	0.318579	-0.282249
10	677934536													-8.850221	2.973902	-2.945768	-0.236305	0.172205	0.956298	0.354433	0.931637	-0.080183	-0.904730	0.319996	-0.281186
11	677942869													-8.813790	3.070119	-2.967390	-0.235892	0.171467	0.956532	0.354635	0.931615	-0.079544	-0.904759	0.320456	-0.280569
12	677951202													-8.758329	3.102507	-3.074823	-0.236898	0.168369	0.956834	0.354139	0.932072	-0.076333	-0.904691	0.320769	-0.280432
13	677959535													-8.720440	3.114676	-3.296757	-0.236671	0.167797	0.956991	0.354387	0.932023	-0.075777	-0.904653	0.321211	-0.280048
14	677967868													-8.698066	3.123066	-3.288924	-0.238500	0.164945	0.957032	0.353969	0.932443	-0.072495	-0.904336	0.321470	-0.280773
15	677976201													-8.684166	3.118056	-3.148803	-0.238556	0.164065	0.957170	0.354216	0.932423	-0.071542	-0.904224	0.321978	-0.280550
16	677984534													-8.717316	3.059577	-3.073183	-0.241307	0.161580	0.956903	0.353986	0.932758	-0.068236	-0.903585	0.322264	-0.282278
17	677992867													-8.794069	3.411537	-2.958732	-0.241279	0.160736	0.957052	0.354191	0.932744	-0.067360	-0.903511	0.322727	-0.281983
18	678001200													-8.725985	3.064041	-2.799842	-0.243570	0.158908	0.956777	0.353862	0.933044	-0.064882	-0.903026	0.322764	-0.283493
19	678009533													-8.848928	2.979705	-2.983114	-0.243393	0.158120	0.956952	0.353965	0.933056	-0.064143	-0.903033	0.323116	-0.283069
20	678017866													-8.651548	3.293307	-3.107708	-0.245288	0.155935	0.956827	0.353728	0.933329	-0.061425	-0.902613	0.323389	-0.284093
21	678026199													-8.753121	3.169955	-3.018966	-0.244972	0.155013	0.957058	0.353693	0.933393	-0.060648	-0.902713	0.323648	-0.283482
22	678034532													-8.731494	3.183344	-3.050378	-0.246624	0.152803	0.956989	0.353394	0.933674	-0.058008	-0.902380	0.323888	-0.284266
23	678042865													-8.717823	3.248957	-2.933330	-0.246447	0.151556	0.957233	0.353283	0.933785	-0.056888	-0.902471	0.324155	-0.283671
24	678051198													-8.731188	3.178192	-2.761097	-0.248064	0.149143	0.957194	0.352973	0.934070	-0.054064	-0.902150	0.324452	-0.284353
25	678059531													-8.774668	3.119397	-2.662866	-0.247880	0.147804	0.957450	0.352868	0.934179	-0.052855	-0.902241	0.324752	-0.283720
26	678067864													-8.888666	2.805656	-2.570261	-0.249206	0.145446	0.957466	0.352612	0.934424	-0.050169	-0.901976	0.325112	-0.284150
27	678076197													-8.512512	2.878319	-2.763639	-0.249256	0.143826	0.957698	0.352632	0.934501	-0.048564	-0.901955	0.325610	-0.283647
28	678084530													-8.537100	3.045509	-2.843634	-0.250386	0.141525	0.957746	0.352468	0.934694	-0.045972	-0.901706	0.326064	-0.283918
29	678092863													-8.477990	3.175676	-2.971258	-0.250459	0.139732	0.957990	0.352521	0.934761	-0.044180	-0.901665	0.326646	-0.283378
30	678101196													-8.432088	3.262790	-3.046467	-0.251639	0.136434	0.958156	0.352088	0.935082	-0.040680	-0.901505	0.327119	-0.283340
31	678109529													-8.549050	3.199482	-2.978072	-0.251622	0.134329	0.958458	0.352078	0.935173	-0.038635	-0.901514	0.327731	-0.282604
32	678117862													-8.586899	3.091230	-2.958659	-0.252504	0.131685	0.958593	0.351847	0.935372	-0.035815	-0.901358	0.328235	-0.282518
33	678126195													-8.744326	3.389991	-2.936994	-0.252315	0.129734	0.958909	0.351714	0.935489	-0.034020	-0.901462	0.328678	-0.281667
34	678134528													-9.043801	3.591092	-2.741657	-0.252336	0.127479	0.959206	0.351326	0.935709	-0.031934	-0.901608	0.328936	-0.280899
35	678142861													-8.923783	3.647132	-2.750665	-0.251361	0.125215	0.959760	0.350919	0.935919	-0.030199	-0.902039	0.329207	-0.279194
36	678151194													-8.465252	3.654473	-3.075814	-0.251214	0.122974	0.960088	0.350671	0.936076	-0.028143	-0.902176	0.329605	-0.278279
37	678159527													-8.531292	3.280638	-3.069247	-0.250666	0.120947	0.960489	0.350351	0.936245	-0.026460	-0.902452	0.329876	-0.277059
38	678167860													-8.823961	3.050473	-2.771600	-0.251038	0.118159	0.960738	0.350047	0.936432	-0.023703	-0.902467	0.330353	-0.276441
39	678176193													-8.921864	2.912788	-2.831086	-0.250543	0.115997	0.961131	0.349728	0.936596	-0.021870	-0.902728	0.330655	-0.275225
40	678184526													-8.799143	2.999856	-2.966213	-0.250877	0.113428	0.961351	0.349645	0.936684	-0.019273	-0.902668	0.331296	-0.274652
41	678192859													-8.609103	3.049301	-3.013386	-0.250647	0.111428	0.961645	0.349579	0.936745	-0.017427	-0.902757	0.331803	-0.273745
42	678201192													-8.658910	3.093942	-2.995637	-0.251162	0.109354	0.961748	0.349554	0.936793	-0.015230	-0.902624	0.332357	-0.273512
43	678209525													-8.747313	3.162813	-2.922904	-0.250745	0.107967	0.962013	0.349607	0.936791	-0.014013	-0.902719	0.332813	-0.272642
44	678217858													-8.795565	3.252136	-2.749693	-0.250657	0.106662	0.962182	0.349620	0.936805	-0.012770	-0.902739	0.333197	-0.272107
45	678226191													-8.852764	3.282623	-2.775143	-0.249552	0.105831	0.962561	0.349669	0.936792	-0.012343	-0.903026	0.333497	-0.270784
46	678234524													-8.921509	3.365201	-2.742031	-0.249128	0.104672	0.962797	0.349681	0.936800	-0.011364	-0.903138	0.333840	-0.269985
47	678242857													-8.924256	3.447823	-2.583848	-0.248135	0.103684	0.963161	0.349751	0.936781	-0.010740	-0.903384	0.334201	-0.268712
48	678251190													-8.924033	3.464208	-2.390931	-0.247766	0.102540	0.963378	0.349814	0.936769	-0.009741	-0.903461	0.334589	-0.267969
49	678259523													-8.873796	3.523373	-2.289733	-0.246775	0.101466	0.963746	0.349898	0.936744	-0.009029	-0.903700	0.334985	-0.266668
50	678267856													-8.811997	3.582746	-2.251915	-0.245965	0.100762	0.964027	0.350110	0.936669	-0.008574	-0.903839	0.335406	-0.265666
51	678276189													-8.771687	3.490364	-2.378749	-0.244764	0.099717	0.964441	0.350226	0.936631	-0.007958	-0.904120	0.335825	-0.264177
52	678284522													-8.853747	3.453155	-2.573913	-0.243962	0.097880	0.964833	0.350381	0.936585	-0.006419	-0.904276	0.336493	-0.262787
53	678292855													-8.929012	3.376394	-2.464700	-0.242581	0.096302	0.965340	0.350636	0.936497	-0.005313	-0.904549	0.337194	-0.260943
54	678301188													-8.944762	3.249135	-2.423290	-0.241108	0.095152	0.965822	0.351163	0.936303	-0.004579	-0.904738	0.338057	-0.259164
55	678309521													-8.954777	3.078775	-2.538983	-0.239223	0.094474	0.966357	0.351642	0.936124	-0.004469	-0.905053	0.338742	-0.257164
56	678317854													-8.924753	2.957415	-2.511513	-0.237423	0.094187	0.966829	0.352269	0.935887	-0.004667	-0.905283	0.339476	-0.255380
57	678326187													-8.905589	2.931421	-2.656386	-0.235561	0.094041	0.967299	0.352710	0.935719	-0.005078	-0.905597	0.339979	-0.253589
58	678334520													-8.869966	2.977659	-2.583323	-0.233974	0.093804	0.967707	0.353084	0.935576	-0.005320	-0.905863	0.340437	-0.252021
59	678342853													-8.841829	3.040822	-2.551188	-0.232037	0.094085	0.968146	0.353460	0.935429	-0.006191	-0.906215	0.340764	-0.250309
60	678351186													-8.796827	3.103113	-2.459892	-0.230104	0.094634	0.968554	0.353818	0.935286	-0.007325	-0.906568	0.341006	-0.248697
61	678359519													-8.763593	3.202383	-2.491498	-0.227873	0.095427	0.969003	0.354194	0.935130	-0.008798	-0.906984	0.341211	-0.246890
62	678367852													-8.733173	3.314025	-2.541369	-0.225870	0.096201	0.969396	0.354460	0.935016	-0.010200	-0.907382	0.341308	-0.245291
63	678376185													-8.675050	3.327837	-2.644241	-0.223902	0.097109	0.969762	0.354785	0.934875	-0.011701	-0.907742	0.341437	-0.243773
64	678384518													-8.623418	3.343306	-2.646417	-0.222390	0.097673	0.970053	0.355003	0.934778	-0.012735	-0.908028	0.341540	-0.242560
65	678392851													-8.619331	3.363597	-2.433545	-0.220530	0.098557	0.970388	0.355358	0.934623	-0.014166	-0.908343	0.341711	-0.241135
66	678401184													-8.622189	3.355073	-2.285043	-0.218880	0.099332	0.970683	0.355661	0.934488	-0.015430	-0.908624	0.341856	-0.239869
67	678409517													-8.607247	3.440639	-2.381224	-0.216977	0.100498	0.970990	0.356115	0.934285	-0.017122	-0.908902	0.342069	-0.238507
68	678417850													-8.580825	3.505102	-2.469414	-0.215592	0.100967	0.971250	0.356440	0.934145	-0.017989	-0.909104	0.342314	-0.237383
69	678426183													-8.559772	3.502688	-2.542159	-0.214005	0.101445	0.971551	0.356881	0.933958	-0.018909	-0.909306	0.342682	-0.236075
70	678434516													-8.552334	3.464078	-2.636753	-0.212987	0.101284	0.971791	0.357279	0.933804	-0.019020	-0.909389	0.343149	-0.235075
71	678442849													-8.590178	3.357808	-2.557549	-0.212042	0.101069	0.972020	0.357703	0.933641	-0.019047	-0.909443	0.343656	-0.234124
72	678451182													-8.656137	3.330834	-2.585033	-0.211747	0.100238	0.972171	0.358095	0.933507	-0.018255	-0.909357	0.344264	-0.233562
73	678459515													-8.718127	3.230880	-2.564171	-0.211178	0.099645	0.972355	0.358555	0.933339	-0.017775	-0.909309	0.344889	-0.232829
74	678467848													-8.715240	3.187687	-2.507725	-0.210757	0.098897	0.972523	0.358954	0.933198	-0.017108	-0.909249	0.345486	-0.232177
75	678476181													-8.678704	3.181170	-2.570702	-0.209735	0.098653	0.972769	0.359317	0.933058	-0.017155	-0.909342	0.345935	-0.231143
76	678484514													-8.650392	3.194627	-2.640694	-0.209010	0.098239	0.972967	0.359552	0.932971	-0.016963	-0.909416	0.346287	-0.230322
77	678492847													-8.648998	3.310127	-2.515560	-0.207856	0.098043	0.973234	0.359663	0.932924	-0.017168	-0.909637	0.346467	-0.229176
78	678501180													-8.684864	3.318292	-2.446321	-0.207025	0.097825	0.973433	0.359638	0.932932	-0.017268	-0.909836	0.346509	-0.228322
79	678509513													-8.691528	3.231728	-2.369663	-0.205993	0.097435	0.973691	0.359525	0.932975	-0.017300	-0.910115	0.346503	-0.227216
80	678517846													-8.718552	3.188896	-2.326284	-0.205587	0.096599	0.973860	0.359350	0.933054	-0.016691	-0.910275	0.346525	-0.226537
81	678526179													-8.822315	3.215026	-2.332911	-0.204965	0.095891	0.974061	0.359244	0.933102	-0.016265	-0.910458	0.346592	-0.225701
82	678534512													-8.853219	3.262962	-2.309340	-0.204860	0.095056	0.974165	0.359139	0.933155	-0.015530	-0.910523	0.346679	-0.225304
83	678542845													-8.837477	3.231506	-2.350378	-0.204542	0.094197	0.974315	0.359062	0.933196	-0.014842	-0.910624	0.346803	-0.224701
84	678551178													-8.855031	3.221218	-2.326764	-0.204647	0.093063	0.974402	0.358897	0.933276	-0.013759	-0.910666	0.346894	-0.224392
85	678559511													-8.858955	3.167648	-2.277866	-0.204269	0.092206	0.974563	0.358759	0.933338	-0.013110	-0.910805	0.346955	-0.223731
86	678567844													-8.845838	3.159683	-2.285676	-0.204000	0.091364	0.974698	0.358527	0.933436	-0.012458	-0.910957	0.346914	-0.223178
87	678576177													-8.883768	3.216392	-2.162620	-0.203219	0.090702	0.974923	0.358295	0.933529	-0.012165	-0.911222	0.346838	-0.222209
88	678584510													-8.832148	3.185011	-2.043795	-0.202618	0.090086	0.975105	0.357943	0.933668	-0.011880	-0.911495	0.346625	-0.221423
89	678592843													-8.791529	3.199497	-1.957768	-0.201618	0.089690	0.975349	0.357611	0.933794	-0.011945	-0.911847	0.346387	-0.220344
90	678601176													-8.853592	3.220542	-1.979622	-0.200997	0.089070	0.975534	0.357147	0.933975	-0.011689	-0.912166	0.346059	-0.219537
91	678609509													-8.895835	3.197449	-1.935821	-0.200158	0.088645	0.975745	0.356762	0.934122	-0.011680	-0.912501	0.345771	-0.218597
92	678617842													-9.013562	3.248352	-1.946134	-0.199710	0.087913	0.975903	0.356230	0.934330	-0.011268	-0.912807	0.345396	-0.217913
93	678626175													-9.076238	3.243254	-1.944167	-0.198781	0.087727	0.976110	0.355850	0.934472	-0.011517	-0.913158	0.345059	-0.216973
94	678634508													-8.996821	3.252920	-1.951445	-0.198023	0.087457	0.976288	0.355396	0.934643	-0.011641	-0.913499	0.344663	-0.216162
95	678642841													-8.875976	3.272933	-2.097464	-0.197106	0.087266	0.976491	0.354999	0.934791	-0.011882	-0.913852	0.344311	-0.215232
96	678651174													-8.790572	3.321574	-2.141063	-0.196540	0.086712	0.976654	0.354419	0.935014	-0.011693	-0.914199	0.343847	-0.214500
97	678659507													-8.719976	3.277304	-2.134537	-0.195784	0.086399	0.976834	0.353915	0.935203	-0.011783	-0.914556	0.343409	-0.213676
98	678667840													-8.745514	3.267041	-2.143692	-0.195228	0.085913	0.976988	0.353242	0.935459	-0.011674	-0.914935	0.342834	-0.212976
99	678676173													-8.792539	3.230912	-2.210705	-0.194232	0.085827	0.977194	0.352616	0.935690	-0.012094	-0.915388	0.342225	-0.212005
100	678684506													-8.815271	3.222742	-2.386863	-0.193474	0.085402	0.977381	0.351853	0.935977	-0.012134	-0.915843	0.341547	-0.211136
101	678692839													-8.797863	3.240664	-2.341738	-0.192416	0.085395	0.977591	0.351241	0.936200	-0.012646	-0.916300	0.340937	-0.210134
102	678701172													-8.839924	3.314982	-2.333514	-0.191437	0.085273	0.977794	0.350552	0.936452	-0.013035	-0.916769	0.340272	-0.209164
103	678709505													-8.851467	3.241933	-2.378665	-0.190230	0.085163	0.978039	0.350007	0.936650	-0.013483	-0.917228	0.339755	-0.207987
104	678717838													-8.770376	3.166750	-2.262306	-0.189341	0.084504	0.978268	0.349340	0.936902	-0.013317	-0.917667	0.339226	-0.206914
105	678726171													-8.787817	3.175238	-2.209113	-0.188149	0.084322	0.978514	0.348893	0.937063	-0.013665	-0.918081	0.338826	-0.205727
106	678734504													-8.796415	3.030730	-2.160073	-0.187337	0.084073	0.978691	0.348378	0.937252	-0.013828	-0.918443	0.338364	-0.204871
107	678742837													-8.775665	2.854459	-2.152763	-0.186326	0.084180	0.978875	0.348021	0.937377	-0.014366	-0.918784	0.337992	-0.203954
108	678751170													-8.807358	2.778726	-2.110847	-0.185559	0.084454	0.978997	0.347652	0.937504	-0.014981	-0.919079	0.337570	-0.203323
109	678759503													-8.791290	2.821805	-2.160381	-0.184601	0.085092	0.979123	0.347453	0.937561	-0.015973	-0.919347	0.337251	-0.202640
110	678767836													-8.810600	2.869463	-2.218527	-0.184039	0.085610	0.979184	0.347148	0.937661	-0.016732	-0.919575	0.336842	-0.202286
111	678776169													-8.849757	2.966316	-2.230011	-0.183411	0.086487	0.979224	0.347002	0.937695	-0.017824	-0.919755	0.336524	-0.201995
112	678784502													-8.924194	3.170468	-2.245448	-0.183253	0.087169	0.979194	0.346670	0.937803	-0.018606	-0.919912	0.336047	-0.202074
113	678792835													-9.091984	4.531663	-2.186863	-0.182549	0.087589	0.979287	0.346452	0.937869	-0.019303	-0.920134	0.335752	-0.201553
114	678801168													-8.901873	4.503650	-1.912015	-0.181726	0.087495	0.979449	0.345953	0.938047	-0.019609	-0.920485	0.335280	-0.200736
115	678809501													-8.989409	3.721405	-1.821487	-0.180930	0.086638	0.979672	0.345531	0.938212	-0.019158	-0.920800	0.335041	-0.199687
116	678817834													-8.888793	3.163268	-1.845537	-0.180835	0.085341	0.979804	0.345207	0.938354	-0.018018	-0.920940	0.334976	-0.199147
117	678826167													-8.958931	2.810885	-2.013084	-0.180713	0.084129	0.979931	0.344963	0.938463	-0.016952	-0.921055	0.334977	-0.198614
118	678834500													-9.048248	2.665061	-2.049888	-0.180892	0.082831	0.980009	0.344591	0.938621	-0.015728	-0.921160	0.334857	-0.198332
119	678842833													-9.038803	2.676270	-2.042111	-0.180684	0.082072	0.980111	0.344306	0.938736	-0.015135	-0.921307	0.334723	-0.197872
120	678851166													-9.020322	3.043613	-2.055576	-0.180517	0.081220	0.980213	0.343935	0.938882	-0.014456	-0.921478	0.334520	-0.197419
121	678859499													-8.938289	3.047280	-2.034266	-0.179918	0.080722	0.980364	0.343716	0.938966	-0.014234	-0.921677	0.334405	-0.196683
122	678867832													-8.874787	3.073173	-1.976002	-0.179414	0.080180	0.980501	0.343399	0.939086	-0.013957	-0.921893	0.334199	-0.196019
123	678876165													-8.867408	3.019547	-1.933403	-0.178766	0.079798	0.980650	0.343176	0.939169	-0.013864	-0.922102	0.334058	-0.195276
124	678884498													-8.919652	2.975165	-2.016144	-0.178691	0.079195	0.980713	0.342816	0.939307	-0.013388	-0.922251	0.333812	-0.194995
125	678892831													-8.955191	3.207251	-2.121322	-0.178424	0.078860	0.980789	0.342569	0.939400	-0.013212	-0.922394	0.333631	-0.194626
126	678901164													-8.874046	3.236132	-2.184685	-0.178442	0.078442	0.980819	0.342247	0.939522	-0.012873	-0.922510	0.333385	-0.194497
127	678909497													-8.879119	3.302156	-2.252712	-0.178277	0.078056	0.980880	0.342068	0.939591	-0.012599	-0.922609	0.333281	-0.194207
128	678917830													-8.805210	3.304253	-2.198161	-0.178306	0.077467	0.980921	0.341794	0.939697	-0.012082	-0.922705	0.333118	-0.194032
129	678926163													-8.733553	3.292181	-2.154254	-0.178058	0.077076	0.980997	0.341685	0.939740	-0.011816	-0.922793	0.333088	-0.193664
130	678934496													-8.734976	3.248605	-2.172469	-0.178203	0.076404	0.981023	0.341481	0.939822	-0.011165	-0.922840	0.333011	-0.193570
131	678942829													-8.780678	3.286608	-2.118868	-0.178025	0.075989	0.981087	0.341410	0.939852	-0.010844	-0.922901	0.333023	-0.193261
132	678951162													-8.746037	3.283733	-2.143347	-0.177994	0.075489	0.981132	0.341261	0.939911	-0.010407	-0.922962	0.332970	-0.193060
133	678959495													-8.711364	3.176205	-2.022956	-0.177748	0.075078	0.981208	0.341227	0.939927	-0.010105	-0.923022	0.333018	-0.192689
134	678967828													-8.760321	3.177832	-1.903346	-0.177730	0.074557	0.981251	0.341107	0.939975	-0.009638	-0.923070	0.332998	-0.192493
135	678976161													-8.803570	3.205152	-1.874421	-0.177486	0.074097	0.981330	0.341014	0.940012	-0.009301	-0.923151	0.332996	-0.192107
136	678984494													-8.844275	3.207492	-1.876095	-0.177599	0.073445	0.981359	0.340841	0.940081	-0.008673	-0.923193	0.332947	-0.191990
137	678992827													-8.804770	3.179297	-1.897192	-0.177431	0.072987	0.981423	0.340788	0.940104	-0.008303	-0.923245	0.332984	-0.191677
138	679001160													-8.882415	3.240124	-1.996480	-0.177448	0.072492	0.981457	0.340658	0.940154	-0.007850	-0.923290	0.332948	-0.191524
139	679009493													-8.978205	3.240955	-2.086948	-0.177244	0.072107	0.981522	0.340616	0.940172	-0.007561	-0.923345	0.332982	-0.191201
140	679017826													-8.998388	3.259472	-2.067561	-0.177416	0.071559	0.981531	0.340510	0.940215	-0.006998	-0.923351	0.332980	-0.191176
141	679026159													-8.955942	3.218467	-2.105174	-0.177510	0.071136	0.981545	0.340516	0.940216	-0.006559	-0.923330	0.333067	-0.191121
142	679034492													-8.906964	3.237314	-2.050263	-0.177990	0.070649	0.981493	0.340501	0.940225	-0.005930	-0.923243	0.333144	-0.191406
143	679042825													-8.853191	3.229602	-2.052251	-0.178170	0.070339	0.981483	0.340591	0.940195	-0.005552	-0.923176	0.333295	-0.191471
144	679051158													-8.828549	3.195135	-1.974236	-0.178613	0.069979	0.981428	0.340613	0.940190	-0.005050	-0.923082	0.333385	-0.191766
145	679059491													-8.834389	3.236658	-1.946427	-0.178914	0.069761	0.981388	0.340712	0.940156	-0.004716	-0.922987	0.333527	-0.191975
146	679067824													-8.890039	3.225558	-1.895518	-0.179573	0.069487	0.981287	0.340708	0.940160	-0.004226	-0.922861	0.333573	-0.192502
147	679076157													-8.885427	3.218410	-1.998174	-0.180061	0.069271	0.981213	0.340735	0.940152	-0.003844	-0.922756	0.333641	-0.192887
148	679084490													-8.864504	3.199820	-1.999873	-0.180813	0.069046	0.981091	0.340705	0.940164	-0.003374	-0.922619	0.333653	-0.193519
149	679092823													-8.858393	3.177093	-2.009062	-0.181361	0.068840	0.981004	0.340722	0.940159	-0.002984	-0.922506	0.333708	-0.193964
150	679101156													-8.898105	3.195409	-2.000877	-0.182041	0.068642	0.980892	0.340668	0.940180	-0.002570	-0.922392	0.333691	-0.194535
151	679109489													-8.907115	3.199195	-1.986471	-0.182505	0.068587	0.980810	0.340678	0.940177	-0.002353	-0.922296	0.333711	-0.194953
152	679117822													-8.921433	3.233609	-1.929457	-0.183159	0.068525	0.980692	0.340593	0.940209	-0.002085	-0.922198	0.333635	-0.195547
153	679126155													-8.922499	3.222691	-1.894250	-0.183492	0.068687	0.980619	0.340546	0.940225	-0.002135	-0.922149	0.333554	-0.195915
154	679134488													-8.914589	3.226856	-1.877690	-0.184100	0.068846	0.980493	0.340411	0.940274	-0.002106	-0.922078	0.333383	-0.196540
155	679142821													-8.905521	3.231564	-1.857793	-0.184409	0.069268	0.980406	0.340363	0.940291	-0.002413	-0.922034	0.333249	-0.196975
156	679151154													-8.853837	3.248548	-1.865410	-0.184920	0.069633	0.980284	0.340234	0.940337	-0.002613	-0.921979	0.333043	-0.197579
157	679159487													-8.797638	3.287498	-1.937616	-0.185214	0.070198	0.980188	0.340221	0.940341	-0.003057	-0.921925	0.332914	-0.198047
158	679167820													-8.749145	3.272645	-1.901239	-0.185844	0.070509	0.980046	0.340171	0.940358	-0.003148	-0.921816	0.332798	-0.198745
159	679176153													-8.721468	3.355573	-1.906354	-0.186252	0.071019	0.979932	0.340207	0.940344	-0.003488	-0.921721	0.332729	-0.199303
160	679184486													-8.710684	3.435326	-2.001907	-0.186861	0.071444	0.979785	0.340188	0.940350	-0.003689	-0.921605	0.332622	-0.200019
161	679192819													-8.698176	3.426598	-2.057511	-0.187241	0.071918	0.979678	0.340248	0.940327	-0.003999	-0.921505	0.332584	-0.200538
162	679201152													-8.691892	3.394274	-2.102360	-0.187882	0.072277	0.979529	0.340273	0.940318	-0.004117	-0.921366	0.332533	-0.201263
163	679209485													-8.733449	3.346013	-2.103385	-0.188393	0.072825	0.979390	0.340312	0.940302	-0.004457	-0.921247	0.332458	-0.201930
164	679217818													-8.747773	3.284373	-2.255196	-0.189180	0.073238	0.979207	0.340251	0.940323	-0.004594	-0.921108	0.332307	-0.202810
165	679226151													-8.818652	3.305360	-2.389635	-0.189739	0.073929	0.979047	0.340231	0.940328	-0.005068	-0.921000	0.332141	-0.203570
166	679234484													-8.845455	3.317301	-2.425772	-0.190601	0.074454	0.978840	0.340202	0.940338	-0.005281	-0.920833	0.331997	-0.204559
167	679242817													-8.851727	3.282806	-2.399691	-0.191278	0.074990	0.978667	0.340212	0.940332	-0.005559	-0.920689	0.331891	-0.205377
168	679251150													-8.869478	3.285599	-2.387660	-0.192266	0.075324	0.978448	0.340214	0.940332	-0.005537	-0.920483	0.331817	-0.206420
169	679259483													-8.915229	3.260480	-2.420675	-0.193118	0.075674	0.978253	0.340276	0.940309	-0.005565	-0.920281	0.331801	-0.207341
170	679267816													-8.897996	3.282506	-2.322002	-0.194234	0.075810	0.978022	0.340272	0.940312	-0.005309	-0.920048	0.331762	-0.208436
171	679276149													-8.880694	3.323742	-2.272298	-0.195115	0.076052	0.977827	0.340282	0.940309	-0.005235	-0.919858	0.331716	-0.209347
172	679284482													-8.873805	3.382623	-2.239726	-0.196170	0.076106	0.977612	0.340244	0.940324	-0.004929	-0.919648	0.331659	-0.210358
173	679292815													-8.856770	3.364705	-2.201492	-0.196909	0.076229	0.977454	0.340204	0.940340	-0.004800	-0.919504	0.331588	-0.211095
174	679301148													-8.879142	3.354975	-2.084542	-0.197805	0.076223	0.977273	0.340076	0.940387	-0.004513	-0.919359	0.331455	-0.211935
175	679309481													-8.912313	3.361295	-2.079277	-0.198378	0.076422	0.977142	0.339918	0.940444	-0.004543	-0.919294	0.331247	-0.212541
176	679317814													-8.951951	3.408945	-2.170852	-0.199136	0.076503	0.976981	0.339732	0.940512	-0.004400	-0.919199	0.331035	-0.213280
177	679326147													-8.919913	3.387715	-2.217261	-0.199675	0.076528	0.976869	0.339545	0.940580	-0.004281	-0.919151	0.330836	-0.213795
178	679334480													-8.900816	3.423535	-2.192568	-0.200500	0.076379	0.976712	0.339372	0.940644	-0.003892	-0.919036	0.330688	-0.214520
179	679342813													-8.858048	3.424443	-2.253152	-0.201050	0.076382	0.976598	0.339210	0.940703	-0.003741	-0.918975	0.330520	-0.215038
180	679351146													-8.823824	3.381839	-2.322686	-0.201869	0.076057	0.976455	0.339007	0.940779	-0.003193	-0.918871	0.330380	-0.215698
181	679359479													-8.819880	3.376518	-2.392755	-0.202541	0.075666	0.976346	0.338792	0.940858	-0.002634	-0.918802	0.330245	-0.216197
182	679367812													-8.838567	3.320072	-2.323800	-0.203349	0.075024	0.976228	0.338553	0.940946	-0.001791	-0.918712	0.330140	-0.216740
183	679376145													-8.883953	3.344133	-2.263844	-0.203816	0.074596	0.976163	0.338302	0.941037	-0.001277	-0.918701	0.329978	-0.217034
184	679384478													-8.876054	3.338051	-2.259697	-0.204480	0.074142	0.976059	0.338055	0.941126	-0.000667	-0.918644	0.329825	-0.217505
185	679392811													-8.898944	3.320151	-2.243399	-0.204925	0.073752	0.975995	0.337808	0.941215	-0.000196	-0.918636	0.329659	-0.217792
186	679401144													-8.922436	3.301894	-2.276866	-0.205646	0.073228	0.975883	0.337588	0.941294	0.000507	-0.918556	0.329550	-0.218294
187	679409477													-8.926373	3.252267	-2.286860	-0.206042	0.072889	0.975825	0.337397	0.941362	0.000925	-0.918537	0.329431	-0.218552
188	679417810													-8.893100	3.180123	-2.314041	-0.206573	0.072504	0.975741	0.337227	0.941422	0.001441	-0.918480	0.329344	-0.218923
189	679426143													-8.876410	3.192258	-2.402473	-0.206771	0.072233	0.975719	0.337034	0.941491	0.001724	-0.918506	0.329207	-0.219018
190	679434476													-8.826326	3.181775	-2.445866	-0.207210	0.071742	0.975662	0.336863	0.941551	0.002309	-0.918470	0.329143	-0.219266
191	679442809													-8.809766	3.116122	-2.316828	-0.207466	0.071272	0.975642	0.336685	0.941613	0.002809	-0.918478	0.329067	-0.219349
192	679451142													-8.820471	3.075134	-2.301037	-0.207927	0.070776	0.975580	0.336507	0.941675	0.003404	-0.918439	0.328997	-0.219616
193	679459475													-8.858343	3.087221	-2.369486	-0.208161	0.070500	0.975551	0.336303	0.941747	0.003703	-0.918460	0.328851	-0.219744
194	679467808													-8.922214	3.137121	-2.441378	-0.208642	0.070118	0.975475	0.336069	0.941828	0.004182	-0.918437	0.328700	-0.220070
195	679476141													-8.924527	3.234152	-2.464312	-0.208818	0.069783	0.975462	0.335759	0.941937	0.004492	-0.918510	0.328458	-0.220124
196	679484474													-8.847394	3.245043	-2.432936	-0.209102	0.069230	0.975440	0.335368	0.942074	0.005030	-0.918589	0.328183	-0.220207
197	679492807													-8.803457	3.286996	-2.425507	-0.209053	0.068918	0.975473	0.334947	0.942223	0.005213	-0.918753	0.327821	-0.220058
198	679501140													-8.867752	3.213115	-2.364619	-0.209257	0.068425	0.975464	0.334474	0.942388	0.005647	-0.918879	0.327449	-0.220087
199	679509473													-8.911477	3.125991	-2.341774	-0.209182	0.068030	0.975508	0.333956	0.942570	0.005878	-0.919085	0.327006	-0.219888
200	679517806													-8.879542	3.044999	-2.347764	-0.209218	0.067663	0.975525	0.333458	0.942745	0.006126	-0.919257	0.326578	-0.219802
201	679526139													-8.888329	3.059770	-2.448152	-0.208969	0.067449	0.975593	0.332931	0.942931	0.006122	-0.919505	0.326085	-0.219500
202	679534472													-8.873392	3.096694	-2.519468	-0.208914	0.067209	0.975622	0.332412	0.943114	0.006211	-0.919705	0.325606	-0.219371
203	679542805													-8.886789	3.107637	-2.527751	-0.208660	0.067039	0.975688	0.331880	0.943301	0.006162	-0.919955	0.325097	-0.219079
204	679551138													-8.882783	3.117847	-2.400747	-0.208636	0.066869	0.975705	0.331332	0.943494	0.006187	-0.920158	0.324573	-0.219003
205	679559471													-8.845407	3.138447	-2.393291	-0.208218	0.067040	0.975782	0.330812	0.943679	0.005756	-0.920439	0.323999	-0.218669
206	679567804													-8.787887	3.115259	-2.504937	-0.208119	0.067013	0.975805	0.330300	0.943859	0.005627	-0.920646	0.323480	-0.218569
207	679576137													-8.790915	3.152646	-2.465526	-0.207923	0.067029	0.975846	0.329840	0.944021	0.005435	-0.920855	0.323003	-0.218392
208	679584470													-8.806260	3.217418	-2.429232	-0.208026	0.066957	0.975829	0.329423	0.944167	0.005442	-0.920981	0.322592	-0.218468
209	679592803													-8.824644	3.267594	-2.412932	-0.207917	0.066934	0.975854	0.329019	0.944308	0.005331	-0.921150	0.322183	-0.218361
210	679601136													-8.823725	3.280346	-2.465900	-0.208167	0.066655	0.975819	0.328601	0.944452	0.005586	-0.921243	0.321818	-0.218507
211	679609469													-8.792652	3.272784	-2.294103	-0.208229	0.066436	0.975821	0.328168	0.944602	0.005717	-0.921383	0.321423	-0.218496
212	679617802													-8.783897	3.262617	-2.256668	-0.208492	0.066223	0.975780	0.327711	0.944759	0.005903	-0.921486	0.321005	-0.218676
213	679626135													-8.770187	3.272609	-2.394125	-0.208521	0.066041	0.975786	0.327254	0.944918	0.005980	-0.921642	0.320577	-0.218647
214	679634468													-8.761734	3.254284	-2.377981	-0.208900	0.065532	0.975739	0.326785	0.945076	0.006490	-0.921723	0.320213	-0.218841
215	679642801													-8.770876	3.230041	-2.254346	-0.208988	0.065117	0.975748	0.326313	0.945237	0.006810	-0.921870	0.319822	-0.218792
216	679651134													-8.754771	3.186994	-2.234626	-0.209349	0.064574	0.975707	0.325838	0.945397	0.007344	-0.921956	0.319460	-0.218958
217	679659467													-8.727089	3.161163	-2.245712	-0.209476	0.064157	0.975707	0.325370	0.945556	0.007679	-0.922092	0.319074	-0.218946
218	679667800													-8.688810	3.189898	-2.343508	-0.210020	0.063596	0.975626	0.324959	0.945692	0.008308	-0.922113	0.318784	-0.219281
219	679676133													-8.707710	3.250184	-2.545233	-0.210426	0.063043	0.975575	0.324572	0.945819	0.008888	-0.922157	0.318515	-0.219487
220	679684466													-8.733207	3.267858	-2.585121	-0.211242	0.062251	0.975450	0.324214	0.945932	0.009844	-0.922097	0.318334	-0.220003
221	679692799													-8.727428	3.270816	-2.589248	-0.211908	0.061484	0.975354	0.323865	0.946042	0.010728	-0.922066	0.318156	-0.220386
222	679701132													-8.712405	3.285500	-2.562886	-0.212918	0.060512	0.975194	0.323513	0.946149	0.011924	-0.921957	0.318027	-0.221029
223	679709465													-8.714555	3.284864	-2.480306	-0.213699	0.059568	0.975082	0.323121	0.946268	0.013007	-0.921914	0.317849	-0.221464
224	679717798													-8.704634	3.281351	-2.444867	-0.214719	0.058425	0.974927	0.322728	0.946383	0.014364	-0.921815	0.317720	-0.222061
225	679726131													-8.718370	3.232814	-2.392281	-0.215533	0.057263	0.974816	0.322272	0.946518	0.015654	-0.921784	0.317529	-0.222460
226	679734464													-8.737123	3.174479	-2.387723	-0.216710	0.055973	0.974630	0.321827	0.946642	0.017193	-0.921664	0.317388	-0.223161
227	679742797													-8.754334	3.090741	-2.253769	-0.217591	0.054762	0.974503	0.321354	0.946778	0.018549	-0.921621	0.317196	-0.223608
228	679751130													-8.825443	3.081150	-2.429674	-0.218795	0.053354	0.974311	0.320923	0.946890	0.020215	-0.921487	0.317101	-0.224297
229	679759463													-8.870170	3.083806	-2.493122	-0.219802	0.051940	0.974161	0.320483	0.947003	0.021819	-0.921400	0.316998	-0.224800
230	679767796													-8.887680	3.131193	-2.608641	-0.221154	0.050367	0.973937	0.320111	0.947083	0.023710	-0.921206	0.317012	-0.225574
231	679776129													-8.907001	3.128776	-2.627705	-0.222323	0.048726	0.973755	0.319724	0.947165	0.025602	-0.921059	0.317025	-0.226156
232	679784462													-8.892632	3.088100	-2.676641	-0.223747	0.046992	0.973514	0.319341	0.947236	0.027673	-0.920846	0.317075	-0.226948
233	679792795													-8.890786	3.080731	-2.682048	-0.224882	0.045322	0.973331	0.318912	0.947323	0.029572	-0.920719	0.317057	-0.227490
234	679801128													-8.872110	3.121681	-2.632216	-0.226340	0.043537	0.973075	0.318492	0.947396	0.031694	-0.920507	0.317090	-0.228299
235	679809461													-8.872194	3.154619	-2.575319	-0.227483	0.041841	0.972883	0.318039	0.947481	0.033617	-0.920382	0.317062	-0.228843
236	679817794													-8.865343	3.150258	-2.556618	-0.228900	0.040096	0.972624	0.317593	0.947556	0.035681	-0.920185	0.317066	-0.229630
237	679826127													-8.857965	3.115199	-2.455927	-0.230005	0.038425	0.972431	0.317074	0.947657	0.037550	-0.920088	0.316969	-0.230149
238	679834460													-8.857880	3.025737	-2.392926	-0.231319	0.036753	0.972184	0.316560	0.947750	0.039493	-0.919935	0.316890	-0.230867
239	679842793													-8.880734	2.962353	-2.558655	-0.232373	0.035119	0.971992	0.315981	0.947866	0.041294	-0.919869	0.316727	-0.231356
240	679851126													-8.931254	2.980196	-2.620173	-0.233810	0.033427	0.971708	0.315431	0.947961	0.043288	-0.919694	0.316628	-0.232186
241	679859459													-8.973851	2.991592	-2.625192	-0.235016	0.031645	0.971476	0.314861	0.948057	0.045287	-0.919582	0.316523	-0.232772
242	679867792													-8.959164	3.051165	-2.626237	-0.236444	0.029843	0.971187	0.314356	0.948121	0.047398	-0.919388	0.316505	-0.233559
243	679876125													-8.989373	3.075611	-2.607393	-0.237547	0.028076	0.970970	0.313852	0.948188	0.049366	-0.919276	0.316468	-0.234051
244	679884458													-9.019592	3.075439	-2.498318	-0.238847	0.026350	0.970700	0.313391	0.948234	0.051372	-0.919096	0.316478	-0.234741
245	679892791													-8.969537	3.085404	-2.484305	-0.239763	0.024646	0.970519	0.312902	0.948293	0.053220	-0.919025	0.316437	-0.235077
246	679901124													-8.961038	3.055565	-2.435708	-0.240883	0.022931	0.970283	0.312389	0.948352	0.055142	-0.918906	0.316389	-0.235605
247	679909457													-8.910027	3.013510	-2.429056	-0.241639	0.021346	0.970131	0.311849	0.948432	0.056806	-0.918891	0.316261	-0.235835
248	679917790													-8.860097	3.019041	-2.431771	-0.242554	0.019759	0.969937	0.311310	0.948504	0.058527	-0.918833	0.316147	-0.236215
249	679926123													-8.872689	3.035373	-2.518088	-0.243180	0.018150	0.969811	0.310711	0.948599	0.060158	-0.918870	0.315961	-0.236319
250	679934456													-8.913364	3.039521	-2.439041	-0.243970	0.016589	0.969641	0.310124	0.948686	0.061800	-0.918859	0.315786	-0.236595
251	679942789													-8.896264	3.040983	-2.582055	-0.244365	0.015189	0.969564	0.309555	0.948782	0.063156	-0.918946	0.315566	-0.236551
252	679951122													-8.929242	3.063881	-2.624043	-0.245027	0.013794	0.969418	0.309030	0.948855	0.064608	-0.918946	0.315410	-0.236758
253	679959455													-8.931240	3.068009	-2.545837	-0.245382	0.012466	0.969346	0.308501	0.948939	0.065891	-0.919029	0.315213	-0.236698
254	679967788													-8.981322	3.004112	-2.392891	-0.245919	0.011329	0.969224	0.308025	0.949012	0.067062	-0.919045	0.315037	-0.236870
255	679976121													-9.005737	2.926989	-2.370795	-0.246048	0.010252	0.969204	0.307554	0.949095	0.068039	-0.919169	0.314823	-0.236675
256	679984454													-9.003973	2.902122	-2.415082	-0.246430	0.009167	0.969117	0.307152	0.949147	0.069125	-0.919201	0.314701	-0.236714
257	679992787													-9.004036	2.956964	-2.405059	-0.246656	0.008085	0.969069	0.306759	0.949198	0.070160	-0.919271	0.314577	-0.236605
258	680001120													-8.979768	2.996353	-2.424464	-0.247200	0.007006	0.968939	0.306399	0.949229	0.071306	-0.919245	0.314508	-0.236796
259	680009453													-8.858072	2.983279	-2.416037	-0.247478	0.005918	0.968875	0.306008	0.949275	0.072365	-0.919301	0.314393	-0.236735
260	680017786													-8.815034	3.019017	-2.398242	-0.247960	0.004972	0.968758	0.305622	0.949323	0.073354	-0.919299	0.314263	-0.236913
261	680026119													-8.870753	3.017390	-2.394783	-0.248166	0.004120	0.968709	0.305182	0.949403	0.074144	-0.919390	0.314033	-0.236867
262	680034452													-8.863129	2.961569	-2.344885	-0.248607	0.003355	0.968599	0.304713	0.949493	0.074921	-0.919426	0.313771	-0.237073
263	680042785													-8.822172	2.901133	-2.267254	-0.248673	0.002702	0.968584	0.304245	0.949600	0.075463	-0.919563	0.313453	-0.236962
264	680051118													-8.823879	2.875117	-2.316553	-0.248804	0.002197	0.968551	0.303804	0.949708	0.075888	-0.919674	0.313131	-0.236959
265	680059451													-8.874387	2.892897	-2.400963	-0.248529	0.001812	0.968623	0.303380	0.949829	0.076064	-0.919888	0.312765	-0.236609
266	680067784													-8.928130	2.974200	-2.580643	-0.248418	0.001409	0.968652	0.302971	0.949939	0.076317	-0.920053	0.312432	-0.236409
267	680076117													-8.980132	3.031867	-2.674937	-0.248128	0.000961	0.968727	0.302522	0.950064	0.076545	-0.920279	0.312054	-0.236028
268	680084450													-9.006755	2.995222	-2.556035	-0.248065	0.000519	0.968743	0.302086	0.950178	0.076846	-0.920439	0.311707	-0.235863
269	680092783													-8.989740	2.953745	-2.465665	-0.247773	0.000069	0.968818	0.301691	0.950284	0.077089	-0.920647	0.311384	-0.235476
270	680101116													-9.002981	2.903066	-2.413717	-0.247785	-0.000425	0.968815	0.301397	0.950344	0.077502	-0.920740	0.311202	-0.235353
271	680109449													-9.026056	2.848114	-2.447742	-0.247564	-0.000978	0.968871	0.301171	0.950382	0.077914	-0.920874	0.311084	-0.234986
272	680117782													-9.014071	2.870864	-2.420486	-0.247666	-0.001524	0.968844	0.300974	0.950402	0.078433	-0.920911	0.311022	-0.234924
273	680126115													-8.988752	2.886656	-2.384551	-0.247530	-0.002021	0.968878	0.300816	0.950418	0.078835	-0.920999	0.310968	-0.234649
274	680134448													-8.946585	2.866903	-2.338531	-0.247534	-0.002454	0.968876	0.300711	0.950418	0.079234	-0.921032	0.310965	-0.234523
275	680142781													-8.868275	2.915523	-2.293608	-0.247271	-0.002879	0.968942	0.300608	0.950426	0.079538	-0.921136	0.310939	-0.234147
276	680151114													-8.879354	2.913592	-2.208920	-0.247241	-0.003328	0.968948	0.300533	0.950415	0.079949	-0.921169	0.310968	-0.233982
277	680159447													-8.864521	2.873628	-2.209505	-0.246923	-0.003678	0.969028	0.300508	0.950403	0.080182	-0.921262	0.310999	-0.233571
278	680167780													-8.799757	2.882710	-2.322914	-0.246805	-0.003793	0.969058	0.300544	0.950385	0.080264	-0.921282	0.311054	-0.233420
279	680176113													-8.799841	2.909039	-2.461558	-0.246521	-0.003946	0.969129	0.300617	0.950355	0.080338	-0.921334	0.311141	-0.233097
280	680184446													-8.741475	2.966978	-2.498517	-0.246577	-0.004232	0.969114	0.300654	0.950317	0.080647	-0.921307	0.311254	-0.233054
281	680192779													-8.742405	2.988415	-2.387826	-0.246417	-0.004380	0.969154	0.300749	0.950277	0.080763	-0.921319	0.311374	-0.232848
282	680201112													-8.786424	3.004509	-2.461143	-0.246501	-0.004529	0.969132	0.300796	0.950247	0.080949	-0.921281	0.311465	-0.232875
283	680209445													-8.802539	3.004158	-2.528723	-0.246468	-0.004563	0.969140	0.300874	0.950219	0.080991	-0.921265	0.311551	-0.232826
284	680217778													-8.766496	3.022761	-2.604197	-0.246783	-0.004723	0.969059	0.300948	0.950171	0.081271	-0.921156	0.311693	-0.233064
285	680226111													-8.799647	3.067701	-2.631676	-0.247060	-0.005024	0.968987	0.301031	0.950110	0.081679	-0.921055	0.311874	-0.233222
286	680234444													-8.834988	3.042509	-2.593610	-0.247700	-0.005425	0.968822	0.301099	0.950034	0.082302	-0.920860	0.312098	-0.233690
287	680242777													-8.839474	2.979720	-2.611718	-0.248175	-0.005862	0.968697	0.301195	0.949951	0.082913	-0.920701	0.312344	-0.233989
288	680251110													-8.871649	2.925430	-2.730984	-0.248923	-0.006413	0.968502	0.301294	0.949848	0.083728	-0.920467	0.312646	-0.234507
289	680259443													-8.889486	2.935498	-2.767002	-0.249494	-0.007099	0.968350	0.301408	0.949733	0.084620	-0.920275	0.312981	-0.234813
290	680267776													-8.895679	2.923793	-2.701546	-0.250237	-0.007661	0.968154	0.301508	0.949627	0.085444	-0.920040	0.313288	-0.235322
291	680276109													-8.898241	2.905850	-2.634742	-0.250590	-0.007993	0.968060	0.301585	0.949561	0.085908	-0.919919	0.313480	-0.235540
292	680284442													-8.913421	2.949446	-2.631486	-0.251053	-0.008171	0.967939	0.301625	0.949517	0.086248	-0.919780	0.313608	-0.235915
293	680292775													-8.906477	2.982552	-2.564244	-0.251231	-0.008283	0.967892	0.301647	0.949495	0.086423	-0.919724	0.313673	-0.236044
294	680301108													-8.884164	3.036757	-2.525242	-0.251577	-0.008225	0.967802	0.301628	0.949496	0.086476	-0.919636	0.313672	-0.236390
295	680309441													-8.845517	3.023383	-2.538923	-0.251660	-0.008176	0.967781	0.301578	0.949515	0.086443	-0.919629	0.313616	-0.236489
296	680317774													-8.835235	3.012355	-2.598214	-0.252088	-0.008211	0.967669	0.301461	0.949538	0.086591	-0.919550	0.313543	-0.236892
297	680326107													-8.866930	3.010910	-2.599069	-0.252343	-0.008279	0.967602	0.301382	0.949552	0.086722	-0.919506	0.313502	-0.237117
298	680334440													-8.892904	3.022684	-2.751565	-0.252959	-0.008401	0.967441	0.301300	0.949550	0.087027	-0.919364	0.313504	-0.237666
299	680342773													-8.912066	2.981225	-2.793554	-0.253330	-0.008593	0.967342	0.301305	0.949519	0.087341	-0.919260	0.313591	-0.237953
300	680351106													-8.923895	2.978859	-2.801373	-0.253880	-0.008652	0.967197	0.301375	0.949473	0.087601	-0.919085	0.313729	-0.238445
301	680359439													-8.965918	3.001186	-2.700059	-0.254149	-0.008615	0.967127	0.301510	0.949422	0.087690	-0.918967	0.313884	-0.238697
302	680367772													-9.025811	3.022553	-2.712671	-0.254475	-0.008485	0.967042	0.301675	0.949367	0.087715	-0.918822	0.314054	-0.239030
303	680376105													-9.022452	3.022632	-2.729379	-0.254362	-0.008380	0.967073	0.301886	0.949308	0.087629	-0.918784	0.314235	-0.238938
304	680384438													-8.999449	3.017469	-2.638110	-0.254391	-0.008199	0.967067	0.302057	0.949265	0.087506	-0.918720	0.314370	-0.239008
305	680392771													-8.993708	3.024157	-2.574808	-0.254009	-0.007943	0.967169	0.302250	0.949234	0.087175	-0.918763	0.314470	-0.238713
306	680401104													-8.962658	2.986220	-2.623289	-0.253704	-0.007530	0.967253	0.302397	0.949230	0.086706	-0.918798	0.314492	-0.238546
307	680409437													-8.927327	3.003904	-2.672661	-0.253061	-0.007151	0.967424	0.302523	0.949241	0.086151	-0.918934	0.314470	-0.238052
308	680417770													-8.937213	3.001222	-2.651177	-0.252619	-0.006833	0.967542	0.302600	0.949256	0.085711	-0.919030	0.314430	-0.237733
309	680426103													-8.972991	3.042786	-2.622353	-0.251864	-0.006612	0.967740	0.302687	0.949268	0.085263	-0.919209	0.314397	-0.237086
310	680434436													-8.909283	3.043629	-2.697147	-0.251300	-0.006378	0.967888	0.302758	0.949282	0.084862	-0.919340	0.314362	-0.236624
311	680442769													-8.879851	3.056379	-2.693921	-0.250579	-0.006338	0.968075	0.302829	0.949282	0.084601	-0.919513	0.314361	-0.235951
312	680451102													-8.904912	3.123484	-2.667113	-0.250100	-0.006301	0.968200	0.302855	0.949291	0.084409	-0.919635	0.314335	-0.235509
313	680459435													-8.886201	3.185926	-2.652483	-0.249392	-0.006444	0.968381	0.302859	0.949298	0.084313	-0.919826	0.314310	-0.234796
314	680467768													-8.909896	3.216791	-2.512537	-0.248861	-0.006559	0.968517	0.302816	0.949319	0.084237	-0.919984	0.314245	-0.234262
315	680476101													-8.888696	3.226012	-2.471460	-0.247876	-0.006607	0.968769	0.302775	0.949358	0.083945	-0.920263	0.314127	-0.233323
316	680484434													-8.836148	3.158716	-2.430791	-0.247079	-0.006657	0.968972	0.302665	0.949415	0.083699	-0.920514	0.313954	-0.232566
317	680492767													-8.850663	3.154934	-2.325118	-0.246135	-0.006746	0.969212	0.302549	0.949474	0.083442	-0.920805	0.313773	-0.231658
318	680501100													-8.859599	3.102284	-2.289181	-0.245529	-0.006908	0.969365	0.302420	0.949522	0.083366	-0.921009	0.313624	-0.231046
319	680509433													-8.833217	3.026177	-2.372180	-0.244824	-0.007189	0.969541	0.302291	0.949562	0.083374	-0.921239	0.313496	-0.230302
320	680517766													-8.845658	2.978643	-2.469492	-0.244388	-0.007559	0.969648	0.302167	0.949586	0.083561	-0.921395	0.313417	-0.229783
321	680526099													-8.782513	2.895941	-2.583970	-0.243561	-0.007929	0.969853	0.302098	0.949601	0.083630	-0.921637	0.313360	-0.228891
322	680534432													-8.721855	2.854235	-2.639505	-0.242914	-0.008355	0.970012	0.302018	0.949611	0.083812	-0.921834	0.313320	-0.228150
323	680542765													-8.770399	2.907815	-2.583369	-0.241877	-0.008623	0.970269	0.301961	0.949637	0.083715	-0.922125	0.313232	-0.227091
324	680551098													-8.839499	2.934589	-2.683139	-0.240969	-0.008873	0.970492	0.301858	0.949677	0.083633	-0.922397	0.313104	-0.226164
325	680559431													-8.863550	2.930807	-2.574059	-0.239758	-0.009007	0.970791	0.301771	0.949731	0.083341	-0.922740	0.312939	-0.224988
326	680567764													-8.850122	2.866228	-2.536942	-0.238671	-0.008953	0.971059	0.301687	0.949795	0.082907	-0.923050	0.312743	-0.223988
327	680576097													-8.821440	2.860112	-2.750932	-0.237172	-0.008910	0.971427	0.301613	0.949867	0.082350	-0.923460	0.312527	-0.222595
328	680584430													-8.867824	2.904819	-2.762878	-0.235833	-0.008874	0.971753	0.301512	0.949943	0.081848	-0.923836	0.312297	-0.221352
329	680592763													-8.882789	2.922781	-2.789798	-0.234190	-0.008822	0.972151	0.301420	0.950025	0.081233	-0.924284	0.312050	-0.219827
330	680601096													-8.926356	2.954009	-2.720850	-0.232804	-0.008775	0.972484	0.301280	0.950115	0.080697	-0.924680	0.311777	-0.218547
331	680609429													-8.907277	2.947678	-2.544474	-0.230979	-0.008642	0.972920	0.301172	0.950213	0.079941	-0.925172	0.311481	-0.216877
332	680617762													-8.830561	2.933161	-2.493709	-0.229326	-0.008520	0.973312	0.301003	0.950325	0.079240	-0.925639	0.311141	-0.215370
333	680626095													-8.802461	2.889957	-2.314293	-0.227418	-0.008308	0.973762	0.300905	0.950427	0.078384	-0.926141	0.310836	-0.213644
334	680634428													-8.765549	2.854339	-2.144574	-0.225883	-0.008108	0.974121	0.300766	0.950531	0.077654	-0.926562	0.310523	-0.212270
335	680642761													-8.802018	2.856514	-2.140728	-0.224192	-0.007950	0.974513	0.300684	0.950616	0.076929	-0.926999	0.310268	-0.210730
336	680651094													-8.796464	2.891361	-2.104255	-0.222916	-0.007890	0.974806	0.300568	0.950693	0.076428	-0.927344	0.310032	-0.209553
337	680659427													-8.841511	2.904588	-2.147559	-0.221484	-0.007960	0.975132	0.300467	0.950759	0.076007	-0.927720	0.309829	-0.208186
338	680667760													-8.834206	2.930641	-2.084431	-0.220404	-0.008094	0.975375	0.300324	0.950824	0.075754	-0.928023	0.309625	-0.207135
339	680676093													-8.848851	2.912374	-2.019618	-0.219065	-0.008210	0.975676	0.300216	0.950886	0.075408	-0.928375	0.309433	-0.205841
340	680684426													-8.851459	2.865037	-2.132363	-0.218031	-0.008382	0.975906	0.300063	0.950950	0.075206	-0.928668	0.309230	-0.204822
341	680692759													-8.915544	2.866288	-2.003186	-0.216743	-0.008541	0.976191	0.299962	0.951005	0.074921	-0.929003	0.309058	-0.203561
342	680701092													-8.941412	2.850464	-1.958388	-0.215721	-0.008696	0.976416	0.299785	0.951077	0.074702	-0.929297	0.308830	-0.202560
343	680709425													-8.966321	2.881070	-1.933560	-0.214505	-0.008881	0.976683	0.299647	0.951140	0.074459	-0.929623	0.308632	-0.201363
344	680717758													-8.992640	2.911690	-1.961315	-0.213589	-0.009017	0.976882	0.299450	0.951218	0.074253	-0.929898	0.308387	-0.200469
345	680726091													-9.017676	2.947761	-1.948028	-0.212538	-0.009384	0.977108	0.299233	0.951289	0.074224	-0.930208	0.308159	-0.199377
346	680734424													-8.974434	2.970603	-2.003649	-0.211941	-0.009965	0.977232	0.298936	0.951358	0.074534	-0.930440	0.307926	-0.198653
347	680742757													-8.981918	2.978516	-2.068887	-0.211244	-0.010753	0.977374	0.298662	0.951406	0.075019	-0.930686	0.307752	-0.197767
348	680751090													-8.970409	2.988943	-2.122143	-0.210952	-0.011801	0.977425	0.298322	0.951445	0.075873	-0.930861	0.307593	-0.197189
349	680759423													-9.069108	2.982464	-2.024310	-0.210493	-0.012972	0.977509	0.298026	0.951463	0.076802	-0.931060	0.307490	-0.196410
350	680767756													-9.074030	2.967604	-1.979468	-0.210255	-0.014081	0.977545	0.297720	0.951483	0.077740	-0.931212	0.307380	-0.195862
351	680776089													-9.079781	2.930488	-1.997067	-0.209636	-0.015159	0.977662	0.297453	0.951501	0.078535	-0.931437	0.307272	-0.194960
352	680784422													-9.049048	2.931129	-1.971987	-0.209060	-0.016121	0.977770	0.297112	0.951551	0.079216	-0.931675	0.307068	-0.194142
353	680792755													-9.046368	2.914250	-1.952870	-0.208046	-0.016936	0.977972	0.296824	0.951607	0.079624	-0.931994	0.306851	-0.192951
354	680801088													-9.037878	2.926173	-2.052418	-0.207151	-0.017692	0.978149	0.296481	0.951682	0.080002	-0.932302	0.306575	-0.191896
355	680809421													-9.066181	2.957020	-2.103108	-0.205960	-0.018513	0.978385	0.296160	0.951752	0.080354	-0.932668	0.306308	-0.190540
356	680817754													-9.071160	2.938806	-2.011045	-0.204996	-0.019277	0.978573	0.295806	0.951832	0.080717	-0.932993	0.306014	-0.189420
357	680826087													-9.084551	2.897556	-2.081708	-0.203818	-0.020058	0.978803	0.295495	0.951901	0.081038	-0.933349	0.305749	-0.188088
358	680834420													-9.070394	2.868352	-2.106032	-0.202948	-0.020845	0.978968	0.295141	0.951975	0.081455	-0.933651	0.305464	-0.187049
359	680842753													-9.064827	2.813009	-2.060430	-0.201887	-0.021644	0.979170	0.294845	0.952034	0.081836	-0.933974	0.305224	-0.185822
360	680851086													-9.040382	2.844126	-2.012911	-0.201035	-0.022347	0.979329	0.294537	0.952099	0.082188	-0.934255	0.304971	-0.184823
361	680859419													-9.040416	2.872212	-1.964869	-0.199877	-0.022996	0.979551	0.294290	0.952157	0.082403	-0.934581	0.304742	-0.183547
362	680867752													-8.992416	2.910597	-1.963481	-0.198932	-0.023548	0.979730	0.294009	0.952228	0.082585	-0.934872	0.304478	-0.182505
363	680876085													-8.949402	2.950520	-2.012147	-0.197817	-0.024236	0.979939	0.293761	0.952281	0.082852	-0.935186	0.304258	-0.181258
364	680884418													-8.941544	2.995610	-1.995395	-0.197040	-0.024953	0.980078	0.293461	0.952340	0.083246	-0.935444	0.304017	-0.180326
365	680892751													-8.926963	3.004742	-1.978750	-0.196190	-0.025798	0.980226	0.293200	0.952376	0.083748	-0.935705	0.303833	-0.179283
366	680901084													-8.981572	3.018048	-1.820803	-0.195643	-0.026610	0.980314	0.292912	0.952415	0.084309	-0.935909	0.303640	-0.178539
367	680909417													-8.985507	3.053749	-1.882514	-0.194915	-0.027603	0.980432	0.292635	0.952440	0.084992	-0.936148	0.303474	-0.177568
368	680917750													-8.969265	3.033530	-1.906636	-0.194488	-0.028667	0.980486	0.292333	0.952457	0.085834	-0.936331	0.303322	-0.176861
369	680926083													-8.999604	2.977560	-1.876162	-0.193789	-0.029634	0.980596	0.292088	0.952471	0.086507	-0.936553	0.303184	-0.175923
370	680934416													-9.058186	2.980121	-1.930329	-0.193226	-0.030413	0.980683	0.291856	0.952493	0.087044	-0.936741	0.303037	-0.175171
371	680942749													-9.045268	2.966348	-1.990367	-0.192456	-0.031331	0.980805	0.291672	0.952493	0.087659	-0.936957	0.302944	-0.174175
372	680951082													-9.032936	2.949181	-1.875473	-0.191989	-0.032260	0.980867	0.291454	0.952494	0.088374	-0.937121	0.302844	-0.173466
373	680959415													-9.039861	2.944926	-1.834686	-0.191302	-0.032994	0.980976	0.291294	0.952499	0.088842	-0.937311	0.302748	-0.172604
374	680967748													-9.018716	2.953096	-1.854902	-0.190786	-0.033495	0.981060	0.291087	0.952536	0.089128	-0.937480	0.302578	-0.171980
375	680976081													-9.014894	2.958301	-1.797397	-0.190028	-0.033900	0.981193	0.290860	0.952594	0.089243	-0.937704	0.302349	-0.171160
376	680984414													-8.968922	2.962302	-1.741233	-0.189523	-0.034189	0.981281	0.290558	0.952680	0.089311	-0.937900	0.302045	-0.170621
377	680992747													-8.923583	2.952341	-1.719360	-0.188844	-0.034422	0.981404	0.290245	0.952780	0.089268	-0.938134	0.301706	-0.169935
378	681001080													-8.905642	2.952049	-1.891644	-0.188556	-0.034770	0.981447	0.289866	0.952878	0.089447	-0.938309	0.301354	-0.169592
379	681009413													-8.876667	2.906354	-1.917215	-0.188173	-0.035374	0.981499	0.289509	0.952949	0.089850	-0.938496	0.301060	-0.169078
380	681017746													-8.889306	2.931824	-2.093069	-0.188129	-0.036086	0.981481	0.289178	0.952991	0.090468	-0.938607	0.300842	-0.168850
381	681026079													-8.930705	2.981557	-2.152047	-0.187989	-0.036938	0.981476	0.288921	0.952999	0.091206	-0.938714	0.300715	-0.168481
382	681034412													-8.993183	3.003280	-2.038300	-0.188068	-0.037733	0.981431	0.288690	0.952996	0.091960	-0.938770	0.300624	-0.168335
383	681042745													-8.982145	2.949299	-2.038954	-0.187967	-0.038628	0.981415	0.288480	0.952982	0.092761	-0.938854	0.300555	-0.167985
384	681051078													-8.961853	3.010031	-1.970107	-0.188156	-0.039662	0.981338	0.288193	0.952970	0.093772	-0.938905	0.300459	-0.167876
385	681059411													-9.008747	3.055846	-1.905502	-0.188053	-0.040600	0.981319	0.287889	0.952980	0.094596	-0.939019	0.300300	-0.167523
386	681067744													-9.070798	3.029478	-1.891843	-0.188002	-0.041365	0.981297	0.287543	0.953018	0.095262	-0.939135	0.300075	-0.167275
387	681076077													-9.101801	2.916694	-1.743378	-0.187535	-0.041949	0.981362	0.287244	0.953072	0.095631	-0.939320	0.299825	-0.166684
388	681084410													-9.089442	2.830704	-1.869260	-0.187289	-0.042412	0.981389	0.286925	0.953136	0.095948	-0.939466	0.299555	-0.166343
389	681092743													-9.092596	2.804376	-1.967468	-0.186742	-0.042841	0.981474	0.286666	0.953193	0.096149	-0.939654	0.299311	-0.165720
390	681101076													-9.103709	2.790566	-2.114145	-0.186359	-0.043156	0.981533	0.286401	0.953259	0.096290	-0.939811	0.299056	-0.165288
391	681109409													-9.103882	2.810910	-2.139077	-0.185772	-0.043375	0.981635	0.286162	0.953332	0.096280	-0.940000	0.298793	-0.164690
392	681117742													-9.091236	2.875129	-2.088988	-0.185382	-0.043436	0.981706	0.285902	0.953421	0.096173	-0.940156	0.298500	-0.164329
393	681126075													-9.033977	2.906150	-2.086044	-0.184713	-0.043496	0.981830	0.285668	0.953510	0.095984	-0.940359	0.298206	-0.163700
394	681134408													-8.935171	2.891127	-2.036381	-0.184270	-0.043569	0.981909	0.285408	0.953599	0.095874	-0.940525	0.297912	-0.163285
395	681142741													-8.909672	2.895867	-2.028230	-0.183643	-0.043784	0.982017	0.285170	0.953672	0.095849	-0.940719	0.297644	-0.162650
396	681151074													-8.927312	2.870413	-1.994945	-0.183152	-0.043872	0.982105	0.284912	0.953761	0.095738	-0.940893	0.297348	-0.162184
397	681159407													-8.939918	2.893369	-2.134026	-0.182372	-0.044075	0.982241	0.284651	0.953847	0.095651	-0.941124	0.297040	-0.161409
398	681167740													-8.956778	2.882957	-2.174386	-0.181744	-0.044203	0.982352	0.284371	0.953942	0.095536	-0.941330	0.296715	-0.160804
399	681176073													-8.947601	2.865501	-2.057929	-0.180817	-0.044266	0.982520	0.284145	0.954036	0.095275	-0.941577	0.296406	-0.159928
400	681184406													-8.962160	2.842701	-1.934998	-0.180119	-0.044201	0.982651	0.283918	0.954135	0.094960	-0.941779	0.296096	-0.159308
401	681192739													-8.953348	2.787021	-1.936846	-0.179226	-0.044061	0.982821	0.283727	0.954235	0.094519	-0.942007	0.295794	-0.158522
402	681201072													-8.988067	2.725882	-1.980137	-0.178673	-0.043803	0.982933	0.283533	0.954338	0.094068	-0.942170	0.295501	-0.158095
403	681209405													-8.971317	2.711308	-1.938610	-0.177910	-0.043518	0.983084	0.283372	0.954438	0.093532	-0.942363	0.295219	-0.157473
404	681217738													-8.983081	2.763941	-1.966131	-0.177408	-0.043129	0.983192	0.283177	0.954551	0.092969	-0.942516	0.294911	-0.157132
405	681226071													-9.017352	2.782904	-2.001961	-0.176725	-0.042853	0.983327	0.282991	0.954655	0.092463	-0.942700	0.294614	-0.156584
406	681234404													-9.016650	2.814259	-1.920726	-0.176355	-0.042563	0.983406	0.282771	0.954762	0.092033	-0.942836	0.294309	-0.156342
407	681242737													-9.011036	2.855978	-1.908725	-0.175790	-0.042401	0.983514	0.282547	0.954863	0.091667	-0.943008	0.294004	-0.155876
408	681251070													-9.004764	2.867705	-1.921410	-0.175496	-0.042321	0.983570	0.282275	0.954964	0.091456	-0.943145	0.293687	-0.155646
409	681259403													-9.015529	2.825922	-1.988459	-0.175052	-0.042586	0.983638	0.281992	0.955040	0.091532	-0.943312	0.293401	-0.155173
410	681267736													-9.033046	2.822964	-1.966479	-0.174936	-0.042943	0.983643	0.281678	0.955108	0.091793	-0.943427	0.293129	-0.154987
411	681276069													-9.052619	2.846675	-1.825814	-0.174567	-0.043352	0.983690	0.281403	0.955166	0.092033	-0.943578	0.292879	-0.154541
412	681284402													-9.072245	2.866273	-1.809104	-0.174466	-0.043729	0.983692	0.281078	0.955235	0.092315	-0.943693	0.292600	-0.154365
413	681292735													-9.092870	2.838833	-1.783785	-0.174015	-0.044062	0.983757	0.280734	0.955323	0.092447	-0.943879	0.292261	-0.153871
414	681301068													-9.118855	2.788744	-1.793996	-0.173699	-0.044215	0.983806	0.280385	0.955426	0.092444	-0.944041	0.291901	-0.153560
415	681309401													-9.108728	2.814183	-1.726301	-0.173092	-0.044379	0.983905	0.280052	0.955531	0.092367	-0.944251	0.291532	-0.152967
416	681317734													-9.124183	2.803138	-1.717303	-0.172677	-0.044301	0.983982	0.279689	0.955662	0.092108	-0.944435	0.291114	-0.152631
417	681326067													-9.137404	2.815134	-1.754261	-0.171867	-0.044159	0.984130	0.279317	0.955813	0.091669	-0.944692	0.290639	-0.151939
418	681334400													-9.135221	2.859001	-1.803816	-0.171293	-0.043955	0.984239	0.278903	0.955976	0.091232	-0.944919	0.290135	-0.151493
419	681342733													-9.094121	2.828637	-1.701642	-0.170515	-0.043803	0.984381	0.278499	0.956136	0.090788	-0.945179	0.289630	-0.150836
420	681351066													-9.082391	2.831365	-1.761055	-0.170126	-0.043733	0.984451	0.278055	0.956289	0.090534	-0.945380	0.289134	-0.150530
421	681359399													-9.085693	2.850469	-1.670021	-0.169615	-0.043868	0.984534	0.277612	0.956426	0.090443	-0.945602	0.288659	-0.150046
422	681367732													-9.093063	2.822657	-1.663838	-0.169445	-0.044020	0.984556	0.277145	0.956560	0.090465	-0.945769	0.288194	-0.149884
423	681376065													-9.108357	2.808505	-1.678954	-0.169110	-0.044365	0.984598	0.276677	0.956680	0.090628	-0.945966	0.287742	-0.149510
424	681384398													-9.123469	2.785962	-1.663806	-0.168944	-0.044644	0.984614	0.276181	0.956810	0.090772	-0.946141	0.287267	-0.149317
425	681392731													-9.154534	2.800910	-1.721092	-0.168342	-0.044894	0.984706	0.275687	0.956953	0.090759	-0.946392	0.286750	-0.148719
426	681401064													-9.142804	2.774167	-1.781044	-0.167849	-0.045006	0.984785	0.275173	0.957112	0.090643	-0.946629	0.286200	-0.148266
427	681409397													-9.101620	2.775066	-1.711464	-0.167084	-0.045103	0.984911	0.274675	0.957275	0.090434	-0.946909	0.285640	-0.147557
428	681417730													-9.123243	2.783804	-1.755844	-0.166658	-0.045127	0.984981	0.274149	0.957443	0.090252	-0.947136	0.285073	-0.147194
429	681426063													-9.137513	2.785780	-1.770723	-0.166093	-0.045277	0.985070	0.273622	0.957603	0.090151	-0.947388	0.284510	-0.146662
430	681434396													-9.140628	2.761773	-1.650327	-0.165864	-0.045405	0.985103	0.273092	0.957757	0.090125	-0.947581	0.283972	-0.146458
431	681442729													-9.144929	2.731169	-1.694408	-0.165452	-0.045555	0.985165	0.272613	0.957898	0.090077	-0.947791	0.283472	-0.146067
432	681451062													-9.177299	2.750492	-1.741768	-0.165364	-0.045690	0.985174	0.272138	0.958030	0.090110	-0.947943	0.283004	-0.145990
433	681459395													-9.142463	2.788681	-1.691102	-0.165105	-0.045949	0.985205	0.271693	0.958146	0.090219	-0.948116	0.282568	-0.145711
434	681467728													-9.123801	2.797957	-1.663584	-0.165164	-0.046229	0.985182	0.271222	0.958259	0.090435	-0.948240	0.282140	-0.145732
435	681476061													-9.114924	2.793622	-1.676872	-0.165008	-0.046686	0.985187	0.270775	0.958354	0.090767	-0.948395	0.281741	-0.145494
436	681484394													-9.107098	2.774430	-1.672845	-0.165152	-0.047175	0.985139	0.270315	0.958441	0.091213	-0.948501	0.281362	-0.145536
437	681492727													-9.143325	2.745465	-1.567954	-0.165151	-0.047906	0.985104	0.269873	0.958505	0.091856	-0.948627	0.281023	-0.145370
438	681501060													-9.172733	2.713698	-1.658988	-0.165429	-0.048596	0.985024	0.269459	0.958555	0.092544	-0.948696	0.280733	-0.145478
439	681509393													-9.213464	2.685762	-1.617048	-0.165391	-0.049410	0.984990	0.269054	0.958599	0.093264	-0.948818	0.280441	-0.145250
440	681517726													-9.223081	2.681346	-1.533784	-0.165539	-0.050158	0.984927	0.268634	0.958648	0.093969	-0.948911	0.280141	-0.145220
441	681526059													-9.203851	2.702983	-1.502772	-0.165416	-0.051035	0.984903	0.268190	0.958698	0.094720	-0.949058	0.279809	-0.144897
442	681534392													-9.185451	2.713141	-1.618469	-0.165521	-0.052015	0.984834	0.267703	0.958744	0.095630	-0.949177	0.279472	-0.144767
443	681542725													-9.156283	2.714090	-1.609194	-0.165464	-0.053078	0.984787	0.267254	0.958774	0.096580	-0.949314	0.279169	-0.144457
444	681551058													-9.166565	2.701765	-1.686106	-0.165617	-0.054065	0.984707	0.266811	0.958802	0.097518	-0.949412	0.278882	-0.144368
445	681559391													-9.147902	2.766753	-1.680609	-0.165489	-0.055256	0.984663	0.266339	0.958826	0.098569	-0.949567	0.278566	-0.143958
446	681567724													-9.125643	2.849352	-1.613766	-0.165482	-0.056381	0.984600	0.265803	0.958870	0.099581	-0.949718	0.278188	-0.143690
447	681576057													-9.181044	2.847178	-1.724470	-0.165187	-0.057654	0.984576	0.265238	0.958915	0.100652	-0.949927	0.277774	-0.143109
448	681584390													-9.257428	2.739791	-1.603254	-0.165090	-0.058893	0.984519	0.264654	0.958961	0.101743	-0.950107	0.277354	-0.142728
449	681592723													-9.251111	2.619769	-1.468995	-0.164697	-0.060064	0.984514	0.264098	0.959014	0.102688	-0.950330	0.276921	-0.142084
450	681601056													-9.277353	2.517399	-1.470300	-0.164454	-0.061010	0.984496	0.263544	0.959084	0.103458	-0.950526	0.276472	-0.141646
451	681609389													-9.218611	2.578494	-1.531554	-0.163854	-0.061929	0.984539	0.263004	0.959162	0.104104	-0.950779	0.275995	-0.140875
452	681617722													-9.141737	2.649004	-1.786262	-0.163505	-0.062754	0.984545	0.262431	0.959251	0.104725	-0.950997	0.275498	-0.140374
453	681626055													-9.081209	2.739682	-1.752162	-0.162992	-0.063870	0.984558	0.261843	0.959318	0.105581	-0.951248	0.275008	-0.139637
454	681634388													-9.046062	2.723965	-1.704564	-0.162793	-0.065079	0.984512	0.261239	0.959368	0.106614	-0.951448	0.274549	-0.139177
455	681642721													-9.082438	2.679025	-1.633455	-0.162526	-0.066585	0.984455	0.260653	0.959382	0.107921	-0.951654	0.274141	-0.138569
456	681651054													-9.218695	2.594621	-1.589600	-0.162608	-0.068054	0.984341	0.260065	0.959386	0.109290	-0.951801	0.273764	-0.138305
457	681659387													-9.320354	2.541281	-1.557150	-0.162444	-0.069604	0.984260	0.259503	0.959380	0.110673	-0.951982	0.273396	-0.137783
458	681667720													-9.282402	2.503966	-1.452816	-0.162349	-0.070872	0.984185	0.259013	0.959380	0.111812	-0.952132	0.273069	-0.137397
459	681676053													-9.191016	2.465858	-1.526860	-0.162006	-0.072148	0.984149	0.258601	0.959364	0.112900	-0.952302	0.272792	-0.136765
460	681684386													-9.177919	2.422943	-1.495899	-0.161890	-0.073191	0.984091	0.258228	0.959354	0.113832	-0.952423	0.272548	-0.136410
461	681692719													-9.243875	2.433233	-1.393007	-0.161565	-0.074282	0.984062	0.257886	0.959336	0.114756	-0.952571	0.272316	-0.135839
462	681701052													-9.276331	2.455794	-1.373223	-0.161477	-0.075094	0.984015	0.257576	0.959333	0.115479	-0.952670	0.272106	-0.135568
463	681709385													-9.181587	2.496941	-1.430973	-0.161149	-0.075646	0.984027	0.257305	0.959356	0.115887	-0.952798	0.271871	-0.135135
464	681717718													-8.989934	2.596587	-1.764551	-0.161105	-0.076023	0.984005	0.257005	0.959399	0.116200	-0.952887	0.271615	-0.135026
465	681726051													-8.901062	2.563495	-1.699128	-0.161029	-0.076855	0.983953	0.256683	0.959395	0.116944	-0.952987	0.271395	-0.134763
466	681734384													-8.985092	2.462441	-1.422053	-0.161311	-0.077632	0.983846	0.256393	0.959375	0.117739	-0.953017	0.271244	-0.134853
467	681742717													-9.261050	2.348739	-1.460135	-0.161500	-0.078605	0.983737	0.256143	0.959323	0.118705	-0.953052	0.271148	-0.134796
468	681751050													-9.559743	2.366315	-1.528493	-0.161809	-0.079241	0.983635	0.255972	0.959284	0.119387	-0.953046	0.271101	-0.134937
469	681759383													-9.616648	2.409204	-1.480019	-0.161725	-0.079667	0.983615	0.255912	0.959252	0.119771	-0.953076	0.271089	-0.134747
470	681767716													-9.457961	2.433841	-1.419839	-0.161675	-0.079533	0.983634	0.255906	0.959272	0.119625	-0.953086	0.271058	-0.134737
471	681776049													-9.293472	2.399351	-1.366603	-0.161393	-0.079324	0.983697	0.255910	0.959306	0.119344	-0.953133	0.270999	-0.134525
472	681784382													-9.280527	2.421982	-1.248281	-0.161291	-0.078810	0.983755	0.255901	0.959374	0.118813	-0.953152	0.270908	-0.134571
473	681792715													-9.372524	2.448733	-1.224555	-0.160956	-0.078416	0.983842	0.255916	0.959428	0.118338	-0.953205	0.270828	-0.134357
474	681801048													-9.489670	2.444364	-1.273909	-0.160668	-0.077691	0.983946	0.255910	0.959527	0.117550	-0.953255	0.270688	-0.134284
475	681809381													-9.493983	2.456374	-1.305959	-0.160122	-0.077023	0.984088	0.255901	0.959627	0.116747	-0.953350	0.270523	-0.133947
476	681817714													-9.338782	2.536775	-1.420449	-0.159556	-0.075979	0.984261	0.255855	0.959783	0.115566	-0.953457	0.270267	-0.133700
477	681826047													-9.189538	2.545668	-1.382045	-0.158734	-0.075064	0.984464	0.255815	0.959928	0.114441	-0.953605	0.270006	-0.133170
478	681834380													-9.187496	2.545678	-1.230223	-0.158199	-0.074000	0.984630	0.255742	0.960089	0.113246	-0.953713	0.269727	-0.132960
479	681842713													-9.323641	2.498312	-1.360575	-0.157558	-0.072960	0.984811	0.255731	0.960232	0.112054	-0.953822	0.269502	-0.132634
480	681851046													-9.538374	2.523481	-1.484906	-0.157178	-0.071786	0.984958	0.255756	0.960370	0.110807	-0.953878	0.269326	-0.132589
481	681859379													-9.558043	2.546529	-1.496620	-0.156699	-0.070719	0.985111	0.255869	0.960473	0.109651	-0.953927	0.269241	-0.132411
482	681867712													-9.348763	2.565346	-1.507952	-0.156396	-0.069653	0.985235	0.255995	0.960565	0.108545	-0.953943	0.269191	-0.132398
483	681876045													-9.143044	2.499225	-1.431547	-0.155792	-0.068651	0.985401	0.256147	0.960650	0.107424	-0.954001	0.269143	-0.132077
484	681884378													-9.107089	2.496134	-1.342882	-0.155168	-0.067477	0.985581	0.256244	0.960769	0.106121	-0.954076	0.269015	-0.131791
485	681892711													-9.218863	2.484649	-1.398791	-0.154208	-0.066399	0.985805	0.256351	0.960883	0.104821	-0.954203	0.268876	-0.131155
486	681901044													-9.356599	2.510206	-1.319568	-0.153330	-0.065229	0.986020	0.256414	0.961015	0.103448	-0.954328	0.268691	-0.130627
487	681909377													-9.363633	2.558530	-1.217729	-0.152160	-0.063908	0.986288	0.256541	0.961151	0.101857	-0.954481	0.268522	-0.129854
488	681917710													-9.228928	2.622315	-1.429039	-0.151055	-0.062245	0.986564	0.256630	0.961328	0.099946	-0.954633	0.268279	-0.129239
489	681926043													-9.079865	2.650117	-1.458369	-0.149787	-0.060799	0.986847	0.256700	0.961489	0.098200	-0.954814	0.268033	-0.128412
490	681934376													-9.079217	2.677842	-1.412817	-0.148670	-0.059263	0.987109	0.256714	0.961668	0.096400	-0.954984	0.267737	-0.127757
491	681942709													-9.156079	2.666108	-1.573453	-0.147593	-0.058041	0.987344	0.256726	0.961812	0.094917	-0.955148	0.267486	-0.127057
492	681951042													-9.246873	2.661130	-1.523211	-0.146895	-0.056968	0.987510	0.256678	0.961947	0.093675	-0.955269	0.267232	-0.126683
493	681959375													-9.266376	2.572254	-1.594970	-0.146238	-0.056117	0.987657	0.256631	0.962057	0.092660	-0.955382	0.267014	-0.126288
494	681967708													-9.220325	2.516888	-1.437740	-0.145776	-0.055121	0.987781	0.256548	0.962186	0.091554	-0.955475	0.266760	-0.126122
495	681976041													-9.136331	2.499191	-1.400003	-0.145020	-0.053954	0.987957	0.256486	0.962330	0.090203	-0.955607	0.266478	-0.125719
496	681984374													-9.016934	2.475548	-1.459859	-0.144388	-0.052573	0.988124	0.256343	0.962510	0.088667	-0.955741	0.266101	-0.125498
497	681992707													-9.042694	2.506387	-1.470015	-0.143678	-0.051280	0.988295	0.256176	0.962689	0.087194	-0.955892	0.265705	-0.125181
498	682001040													-9.106240	2.560416	-1.465816	-0.143322	-0.049987	0.988413	0.255942	0.962876	0.085808	-0.956009	0.265274	-0.125208
499	682009373													-9.192362	2.620564	-1.462794	-0.142853	-0.048791	0.988541	0.255716	0.963053	0.084486	-0.956139	0.264854	-0.125098
500	682017706													-9.254128	2.641145	-1.408135	-0.142585	-0.047623	0.988636	0.255410	0.963243	0.083236	-0.956261	0.264376	-0.125180
501	682026039													-9.250762	2.679112	-1.429852	-0.141975	-0.046494	0.988778	0.255088	0.963440	0.081930	-0.956438	0.263858	-0.124925
502	682034372													-9.236409	2.666187	-1.431834	-0.141489	-0.045204	0.988907	0.254696	0.963665	0.080491	-0.956614	0.263259	-0.124834
503	682042705													-9.235502	2.646832	-1.475249	-0.140788	-0.043909	0.989066	0.254333	0.963885	0.078994	-0.956814	0.262673	-0.124536
504	682051038													-9.300840	2.615848	-1.428193	-0.140382	-0.042649	0.989178	0.253968	0.964094	0.077610	-0.956971	0.262115	-0.124510
505	682059371													-9.292923	2.552189	-1.419934	-0.139856	-0.041270	0.989311	0.253685	0.964290	0.076088	-0.957123	0.261614	-0.124392
506	682067704													-9.317082	2.514737	-1.370415	-0.139402	-0.039800	0.989436	0.253434	0.964479	0.074503	-0.957255	0.261143	-0.124364
507	682076037													-9.311556	2.489965	-1.608990	-0.138587	-0.038267	0.989611	0.253224	0.964667	0.072764	-0.957430	0.260677	-0.124000
508	682084370													-9.171608	2.499483	-1.678971	-0.138075	-0.036905	0.989734	0.252927	0.964857	0.071263	-0.957582	0.260170	-0.123889
509	682092703													-9.081522	2.530261	-1.736736	-0.137430	-0.035576	0.989872	0.252664	0.965036	0.069762	-0.957744	0.259693	-0.123636
510	682101036													-9.122202	2.529777	-1.726549	-0.137021	-0.034455	0.989969	0.252346	0.965208	0.068520	-0.957887	0.259203	-0.123560
511	682109369													-9.118368	2.623102	-1.706231	-0.136412	-0.033233	0.990095	0.252060	0.965380	0.067132	-0.958049	0.258720	-0.123312
512	682117702													-9.107339	2.652593	-1.526282	-0.136052	-0.032141	0.990180	0.251741	0.965546	0.065931	-0.958184	0.258239	-0.123273
513	682126035													-9.117664	2.591571	-1.507156	-0.135570	-0.031284	0.990274	0.251454	0.965689	0.064932	-0.958328	0.257811	-0.123052
514	682134368													-9.132891	2.577018	-1.696921	-0.135362	-0.030669	0.990321	0.251139	0.965817	0.064237	-0.958440	0.257403	-0.123033
515	682142701													-9.140042	2.563910	-1.739417	-0.135011	-0.030058	0.990388	0.250892	0.965929	0.063517	-0.958554	0.257056	-0.122870
516	682151034													-9.142480	2.486563	-1.707969	-0.134898	-0.029418	0.990423	0.250614	0.966046	0.062829	-0.958642	0.256690	-0.122945
517	682159367													-9.162092	2.462537	-1.616561	-0.134627	-0.028800	0.990478	0.250409	0.966145	0.062128	-0.958734	0.256389	-0.122857
518	682167700													-9.120718	2.469236	-1.559901	-0.134651	-0.028276	0.990490	0.250195	0.966234	0.061596	-0.958787	0.256109	-0.123030
519	682176033													-9.038030	2.444155	-1.499892	-0.134605	-0.027874	0.990507	0.250008	0.966310	0.061168	-0.958842	0.255868	-0.123101
520	682184366													-9.042819	2.464921	-1.471852	-0.134945	-0.027527	0.990471	0.249801	0.966381	0.060891	-0.958848	0.255637	-0.123532
521	682192699													-9.041631	2.443234	-1.387144	-0.135212	-0.027301	0.990440	0.249603	0.966443	0.060715	-0.958862	0.255426	-0.123861
522	682201032													-9.085042	2.400265	-1.453428	-0.135790	-0.027176	0.990365	0.249357	0.966507	0.060710	-0.958844	0.255198	-0.124465
523	682209365													-9.140141	2.420031	-1.495033	-0.136267	-0.027145	0.990300	0.249162	0.966553	0.060779	-0.958827	0.255027	-0.124945
524	682217698													-9.182113	2.467529	-1.478478	-0.136965	-0.027156	0.990204	0.248939	0.966600	0.060941	-0.958786	0.254847	-0.125630
525	682226031													-9.207667	2.526635	-1.470541	-0.137409	-0.027174	0.990142	0.248752	0.966641	0.061050	-0.958771	0.254688	-0.126066
526	682234364													-9.213573	2.544562	-1.505997	-0.137997	-0.027143	0.990061	0.248527	0.966693	0.061142	-0.958744	0.254494	-0.126656
527	682242697													-9.253916	2.540061	-1.463600	-0.138277	-0.027169	0.990021	0.248323	0.966741	0.061214	-0.958757	0.254309	-0.126932
528	682251030													-9.258117	2.503049	-1.424495	-0.138762	-0.027123	0.989954	0.248086	0.966799	0.061263	-0.958748	0.254095	-0.127426
529	682259363													-9.295930	2.484366	-1.478751	-0.138973	-0.027137	0.989924	0.247890	0.966847	0.061305	-0.958769	0.253912	-0.127639
530	682267696													-9.304255	2.457527	-1.515949	-0.139369	-0.027177	0.989868	0.247682	0.966893	0.061419	-0.958765	0.253733	-0.128023
531	682276029													-9.293917	2.428403	-1.459494	-0.139573	-0.027321	0.989835	0.247514	0.966925	0.061590	-0.958778	0.253594	-0.128195
532	682284362													-9.279333	2.438384	-1.510715	-0.140033	-0.027423	0.989767	0.247337	0.966958	0.061784	-0.958757	0.253458	-0.128623
533	682292695													-9.260427	2.493116	-1.546896	-0.140251	-0.027637	0.989730	0.247194	0.966979	0.062030	-0.958762	0.253355	-0.128788
534	682301028													-9.315179	2.545400	-1.557612	-0.140690	-0.027904	0.989660	0.247015	0.967002	0.062381	-0.958744	0.253237	-0.129155
535	682309361													-9.355843	2.526806	-1.524203	-0.140980	-0.028318	0.989607	0.246868	0.967009	0.062840	-0.958739	0.253162	-0.129339
536	682317694													-9.383172	2.534848	-1.370851	-0.141450	-0.028775	0.989527	0.246695	0.967018	0.063384	-0.958715	0.253077	-0.129686
537	682326027													-9.365924	2.526304	-1.191198	-0.141588	-0.029270	0.989493	0.246554	0.967021	0.063885	-0.958730	0.253009	-0.129702
538	682334360													-9.340751	2.523248	-1.255709	-0.141899	-0.029712	0.989435	0.246397	0.967029	0.064376	-0.958725	0.252929	-0.129899
539	682342693													-9.356590	2.539382	-1.310763	-0.141965	-0.030281	0.989408	0.246250	0.967029	0.064930	-0.958753	0.252860	-0.129828
540	682351026													-9.374064	2.578692	-1.323944	-0.142105	-0.030860	0.989370	0.246068	0.967037	0.065506	-0.958779	0.252761	-0.129828
541	682359359													-9.308194	2.511812	-1.415707	-0.141998	-0.031639	0.989361	0.245902	0.967030	0.066218	-0.958837	0.252689	-0.129536
542	682367692													-9.258864	2.515206	-1.325983	-0.142071	-0.032462	0.989324	0.245696	0.967028	0.067014	-0.958879	0.252593	-0.129411
543	682376025													-9.304875	2.475308	-1.180287	-0.141860	-0.033408	0.989323	0.245501	0.967018	0.067857	-0.958960	0.252506	-0.128979
544	682384358													-9.375624	2.400419	-1.236589	-0.141729	-0.034199	0.989315	0.245286	0.967023	0.068568	-0.959035	0.252383	-0.128667
545	682392691													-9.402400	2.420552	-1.307723	-0.141381	-0.035001	0.989336	0.245090	0.967025	0.069236	-0.959136	0.252265	-0.128141
546	682401024													-9.386762	2.368238	-1.276433	-0.141237	-0.035709	0.989332	0.244921	0.967022	0.069869	-0.959201	0.252176	-0.127833
547	682409357													-9.316218	2.330264	-1.175838	-0.140941	-0.036377	0.989349	0.244823	0.967006	0.070432	-0.959269	0.252142	-0.127385
548	682417690													-9.261247	2.341189	-1.176281	-0.140882	-0.036881	0.989339	0.244710	0.967001	0.070895	-0.959307	0.252089	-0.127208
549	682426023													-9.276987	2.352699	-1.333804	-0.140633	-0.037408	0.989355	0.244603	0.966996	0.071332	-0.959370	0.252031	-0.126841
550	682434356													-9.248176	2.414846	-1.482833	-0.140519	-0.037704	0.989360	0.244441	0.967019	0.071571	-0.959429	0.251897	-0.126668
551	682442689													-9.221330	2.478725	-1.513194	-0.140246	-0.038179	0.989380	0.244231	0.967045	0.071937	-0.959522	0.251726	-0.126299
552	682451022													-9.188869	2.472008	-1.345566	-0.140155	-0.038555	0.989379	0.243975	0.967087	0.072248	-0.959600	0.251510	-0.126135
553	682459355													-9.202663	2.400345	-1.328018	-0.139924	-0.038994	0.989394	0.243733	0.967122	0.072586	-0.959695	0.251305	-0.125819
554	682467688													-9.295122	2.304088	-1.350602	-0.139880	-0.039397	0.989384	0.243526	0.967148	0.072942	-0.959754	0.251144	-0.125690
555	682476021													-9.401155	2.229235	-1.568577	-0.139757	-0.040017	0.989377	0.243382	0.967142	0.073497	-0.959809	0.251068	-0.125425
556	682484354													-9.456578	2.214732	-1.577078	-0.139802	-0.040609	0.989346	0.243267	0.967127	0.074073	-0.959832	0.251031	-0.125327
557	682492687													-9.400534	2.169183	-1.461621	-0.139574	-0.041140	0.989357	0.243216	0.967105	0.074526	-0.959878	0.251029	-0.124977
558	682501020													-9.353886	2.149079	-1.323408	-0.139393	-0.041442	0.989370	0.243165	0.967099	0.074769	-0.959917	0.251002	-0.124729
559	682509353													-9.352101	2.151661	-1.220223	-0.138966	-0.041691	0.989419	0.243105	0.967104	0.074895	-0.959994	0.250941	-0.124260
560	682517686													-9.355929	2.178809	-1.292029	-0.138467	-0.041629	0.989492	0.242971	0.967154	0.074691	-0.960100	0.250760	-0.123805
561	682526019													-9.340321	2.247491	-1.469506	-0.137648	-0.041617	0.989606	0.242790	0.967218	0.074446	-0.960263	0.250514	-0.123032
562	682534352													-9.334439	2.286384	-1.359271	-0.136946	-0.041585	0.989705	0.242519	0.967305	0.074201	-0.960432	0.250184	-0.122384
563	682542685													-9.333929	2.287203	-1.304116	-0.135956	-0.041540	0.989844	0.242248	0.967398	0.073872	-0.960641	0.249831	-0.121461
564	682551018													-9.371194	2.299070	-1.127547	-0.135068	-0.041385	0.989972	0.241950	0.967504	0.073457	-0.960842	0.249445	-0.120665
565	682559351													-9.409942	2.242533	-1.098917	-0.133958	-0.041129	0.990133	0.241641	0.967624	0.072886	-0.961075	0.249021	-0.119682
566	682567684													-9.432104	2.257811	-1.075960	-0.133023	-0.040907	0.990268	0.241248	0.967760	0.072384	-0.961303	0.248529	-0.118866
567	682576017													-9.406725	2.249572	-1.014937	-0.131867	-0.040655	0.990433	0.240899	0.967891	0.071803	-0.961550	0.248062	-0.117840
568	682584350													-9.391216	2.208027	-1.077935	-0.130902	-0.040297	0.990576	0.240563	0.968021	0.071169	-0.961766	0.247612	-0.117022
569	682592683													-9.380613	2.132980	-0.863366	-0.129758	-0.039944	0.990741	0.240253	0.968147	0.070499	-0.961999	0.247176	-0.116028
570	682601016													-9.306802	2.151236	-0.733994	-0.128627	-0.039202	0.990918	0.239860	0.968321	0.069443	-0.962249	0.246613	-0.115149
571	682609349													-9.265018	2.212476	-0.711724	-0.127301	-0.038297	0.991125	0.239371	0.968532	0.068169	-0.962547	0.245924	-0.114128
572	682617682													-9.203369	2.281383	-0.893306	-0.126223	-0.037316	0.991300	0.238727	0.968782	0.066866	-0.962848	0.245090	-0.113374
573	682626015													-9.241364	2.289949	-1.196319	-0.125198	-0.036405	0.991464	0.238035	0.969036	0.065640	-0.963154	0.244221	-0.112655
574	682634348													-9.241343	2.259387	-1.395441	-0.124543	-0.035572	0.991576	0.237283	0.969292	0.064576	-0.963424	0.243327	-0.112277
575	682642681													-9.231288	2.209983	-1.421171	-0.123853	-0.034760	0.991692	0.236598	0.969528	0.063532	-0.963681	0.242501	-0.111854
576	682651014													-9.196443	2.140408	-1.441616	-0.123388	-0.033919	0.991779	0.235934	0.969756	0.062519	-0.963904	0.241709	-0.111653
577	682659347													-9.182661	2.106481	-1.389688	-0.122804	-0.033118	0.991878	0.235324	0.969968	0.061522	-0.964127	0.240968	-0.111322
578	682667680													-9.236691	2.110099	-1.431534	-0.122390	-0.032352	0.991955	0.234677	0.970183	0.060597	-0.964338	0.240206	-0.111148
579	682676013													-9.288155	2.160979	-1.365509	-0.121767	-0.031536	0.992058	0.234076	0.970391	0.059578	-0.964563	0.239471	-0.110780
580	682684346													-9.308372	2.210330	-1.221204	-0.121273	-0.030618	0.992147	0.233407	0.970619	0.058484	-0.964787	0.238667	-0.110564
581	682692679													-9.313122	2.232661	-1.137561	-0.120588	-0.029560	0.992262	0.232797	0.970841	0.057213	-0.965020	0.237895	-0.110191
582	682701012													-9.351869	2.233510	-1.140459	-0.120031	-0.028294	0.992367	0.232135	0.971084	0.055765	-0.965249	0.237057	-0.109992
583	682709345													-9.390539	2.261535	-0.990912	-0.119173	-0.026920	0.992509	0.231520	0.971322	0.054144	-0.965503	0.236238	-0.109523
584	682717678													-9.403055	2.288705	-1.154612	-0.118410	-0.025412	0.992640	0.230895	0.971566	0.052415	-0.965747	0.235402	-0.109176
585	682726011													-9.395998	2.280142	-1.162326	-0.117544	-0.023920	0.992780	0.230302	0.971799	0.050682	-0.965994	0.234596	-0.108720
586	682734344													-9.458926	2.293442	-1.000457	-0.116840	-0.022371	0.992899	0.229642	0.972045	0.048924	-0.966237	0.233727	-0.108436
587	682742677													-9.478869	2.280681	-0.945094	-0.115953	-0.020782	0.993037	0.229035	0.972278	0.047091	-0.966487	0.232901	-0.107978
588	682751010													-9.466850	2.283176	-0.889349	-0.115269	-0.019072	0.993151	0.228389	0.972521	0.045184	-0.966722	0.232033	-0.107746
589	682759343													-9.417181	2.280460	-0.944661	-0.114466	-0.017126	0.993280	0.227771	0.972764	0.043021	-0.966963	0.231165	-0.107447
590	682767676													-9.365252	2.292133	-1.168326	-0.113857	-0.014985	0.993384	0.227170	0.973004	0.040715	-0.967176	0.230303	-0.107379
591	682776009													-9.327858	2.232480	-1.215136	-0.113212	-0.012939	0.993487	0.226647	0.973216	0.038502	-0.967375	0.229529	-0.107247
592	682784342													-9.336059	2.219988	-1.141485	-0.112714	-0.010789	0.993569	0.226104	0.973430	0.036221	-0.967560	0.228732	-0.107280
593	682792675													-9.312003	2.149985	-1.013746	-0.111998	-0.008604	0.993671	0.225616	0.973628	0.033860	-0.967757	0.227980	-0.107104
594	682801008													-9.345267	2.108106	-1.062636	-0.111458	-0.006418	0.993748	0.225048	0.973837	0.031530	-0.967952	0.227155	-0.107098
595	682809341													-9.374342	2.127775	-0.990705	-0.110601	-0.004105	0.993856	0.224499	0.974043	0.029006	-0.968178	0.226328	-0.106808
596	682817674													-9.364826	2.112623	-1.015263	-0.109843	-0.001784	0.993947	0.223853	0.974263	0.026487	-0.968413	0.225407	-0.106616
597	682826007													-9.304412	2.093503	-0.842546	-0.108987	0.000637	0.994043	0.223209	0.974479	0.023848	-0.968659	0.224479	-0.106348
598	682834340													-9.275412	2.105567	-1.064259	-0.108317	0.003085	0.994112	0.222508	0.974700	0.021219	-0.968895	0.223496	-0.106263
599	682842673													-9.280337	2.115741	-1.131616	-0.107532	0.005416	0.994187	0.221832	0.974906	0.018682	-0.969137	0.222552	-0.106035
600	682851006													-9.264523	2.147589	-0.970280	-0.106838	0.007796	0.994246	0.221080	0.975123	0.016110	-0.969386	0.221529	-0.105904
601	682859339													-9.204844	2.096518	-1.099903	-0.106028	0.010098	0.994312	0.220291	0.975340	0.013585	-0.969655	0.220479	-0.105637
602	682867672													-9.266097	2.025870	-1.106596	-0.105404	0.012219	0.994354	0.219391	0.975572	0.011268	-0.969927	0.219340	-0.105510
603	682876005													-9.287809	1.982520	-1.172686	-0.104574	0.014537	0.994411	0.218498	0.975798	0.008713	-0.970218	0.218188	-0.105219
604	682884338													-9.289247	1.908991	-1.185352	-0.103935	0.016792	0.994442	0.217510	0.976038	0.006253	-0.970509	0.216951	-0.105097
605	682892671													-9.258761	1.810114	-1.166461	-0.103221	0.019010	0.994477	0.216532	0.976268	0.003813	-0.970803	0.215729	-0.104888
606	682901004													-9.238589	1.695123	-1.297017	-0.102735	0.021122	0.994484	0.215507	0.976501	0.001522	-0.971083	0.214475	-0.104873
607	682909337													-9.191589	1.687661	-1.397292	-0.102171	0.023378	0.994492	0.214539	0.976715	-0.000919	-0.971357	0.213263	-0.104808
608	682917670													-9.128692	1.710118	-1.339082	-0.101885	0.025528	0.994469	0.213543	0.976928	-0.003200	-0.971606	0.212036	-0.104985
609	682926003													-9.066730	1.783956	-1.283782	-0.101551	0.027718	0.994444	0.212622	0.977119	-0.005523	-0.971843	0.210880	-0.105121
610	682934336													-9.056544	1.774932	-1.358809	-0.101555	0.029746	0.994385	0.211635	0.977319	-0.007622	-0.972058	0.209673	-0.105547
611	682942669													-9.094262	1.807772	-1.280695	-0.101529	0.031701	0.994327	0.210687	0.977506	-0.009651	-0.972267	0.208512	-0.105924
612	682951002													-9.160850	1.758972	-1.351643	-0.101828	0.033613	0.994234	0.209699	0.977698	-0.011577	-0.972449	0.207311	-0.106606
613	682959335													-9.224880	1.707277	-1.483141	-0.102092	0.035643	0.994136	0.208753	0.977873	-0.013623	-0.972625	0.206139	-0.107274
614	682967668													-9.283685	1.719130	-1.664471	-0.102645	0.037637	0.994006	0.207725	0.978063	-0.015583	-0.972787	0.204881	-0.108211
615	682976001													-9.337899	1.748240	-1.661435	-0.103072	0.039668	0.993883	0.206731	0.978239	-0.017604	-0.972953	0.203652	-0.109030
616	682984334													-9.371487	1.727410	-1.641977	-0.103620	0.041592	0.993747	0.205701	0.978421	-0.019502	-0.973114	0.202394	-0.109939
617	682992667													-9.374108	1.619044	-1.868758	-0.104128	0.043631	0.993606	0.204782	0.978571	-0.021510	-0.973253	0.201233	-0.110832
618	683001000													-9.413766	1.510498	-1.931092	-0.104868	0.045602	0.993440	0.203799	0.978733	-0.023414	-0.973380	0.200007	-0.111931
619	683009333													-9.436701	1.477315	-1.889250	-0.105343	0.047765	0.993288	0.202895	0.978867	-0.025554	-0.973518	0.198841	-0.112808
620	683017666													-9.440477	1.504116	-1.716933	-0.105864	0.050019	0.993122	0.201945	0.979003	-0.027781	-0.973659	0.197614	-0.113742
621	683025999													-9.402668	1.477467	-1.500271	-0.106155	0.052285	0.992974	0.201136	0.979102	-0.030052	-0.973794	0.196533	-0.114453
622	683034332													-9.424880	1.355819	-1.426140	-0.106547	0.054406	0.992818	0.200375	0.979191	-0.032155	-0.973908	0.195510	-0.115231
623	683042665													-9.502125	1.246874	-1.584255	-0.106704	0.056593	0.992679	0.199775	0.979239	-0.034353	-0.974014	0.194647	-0.115795
624	683050998													-9.550490	1.165589	-1.744239	-0.107015	0.058785	0.992518	0.199245	0.979269	-0.036517	-0.974089	0.193846	-0.116509
625	683059331													-9.556774	1.188439	-1.987414	-0.107218	0.061221	0.992349	0.198911	0.979244	-0.038921	-0.974135	0.193216	-0.117171
626	683067664													-9.586433	1.211262	-2.216140	-0.107717	0.063720	0.992138	0.198651	0.979199	-0.041321	-0.974133	0.192638	-0.118134
627	683075997													-9.631981	1.237236	-2.275929	-0.107942	0.066543	0.991928	0.198559	0.979097	-0.044075	-0.974127	0.192199	-0.118898
628	683084330													-9.726979	1.166268	-2.109247	-0.108073	0.069687	0.991697	0.198492	0.978967	-0.047162	-0.974126	0.191747	-0.119632
629	683092663													-9.719410	1.201009	-1.939232	-0.107594	0.073305	0.991489	0.198594	0.978764	-0.050813	-0.974158	0.191436	-0.119867
630	683100996													-9.694273	1.272829	-1.825252	-0.107084	0.077132	0.991254	0.198684	0.978537	-0.054679	-0.974196	0.191091	-0.120111
631	683109329													-9.700327	1.364261	-1.833535	-0.106309	0.081183	0.991014	0.198962	0.978242	-0.058793	-0.974224	0.190924	-0.120148
632	683117662													-9.811952	1.372267	-1.736752	-0.105659	0.085203	0.990745	0.199301	0.977921	-0.062846	-0.974225	0.190817	-0.120307
633	683125995													-9.930401	1.330632	-1.748497	-0.104569	0.089551	0.990478	0.199809	0.977522	-0.067285	-0.974239	0.190871	-0.120111
634	683134328													-9.899010	1.261477	-1.731574	-0.103471	0.093944	0.990186	0.200284	0.977105	-0.071774	-0.974259	0.190892	-0.119917
635	683142661													-9.788823	1.286868	-1.714971	-0.101958	0.098761	0.989874	0.200882	0.976605	-0.076746	-0.974295	0.191023	-0.119412
636	683150994													-9.672489	1.320585	-1.856649	-0.100740	0.103637	0.989500	0.201380	0.976097	-0.081731	-0.974319	0.191032	-0.119202
637	683159327													-9.636573	1.331051	-1.833341	-0.099445	0.108743	0.989083	0.202010	0.975517	-0.086941	-0.974322	0.191159	-0.118977
638	683167660													-9.610636	1.269650	-1.888825	-0.098351	0.113876	0.988615	0.202568	0.974923	-0.092147	-0.974317	0.191199	-0.118953
639	683175993													-9.669057	1.153811	-1.912099	-0.096865	0.119216	0.988132	0.203252	0.974248	-0.097617	-0.974323	0.191384	-0.118602
640	683184326													-9.705938	1.147846	-1.869244	-0.095215	0.124670	0.987619	0.203800	0.973553	-0.103246	-0.974371	0.191447	-0.118104
641	683192659													-9.717239	1.119576	-1.808208	-0.092997	0.130667	0.987055	0.204436	0.972735	-0.109510	-0.974452	0.191605	-0.117175
642	683200992													-9.799638	1.069110	-1.826238	-0.090867	0.136849	0.986416	0.204976	0.971875	-0.115949	-0.974540	0.191656	-0.116362
643	683209325													-9.838746	1.145485	-1.756980	-0.088393	0.143376	0.985713	0.205701	0.970883	-0.122773	-0.974615	0.191910	-0.115312
644	683217658													-9.782998	1.103879	-1.906874	-0.086151	0.150083	0.984913	0.206398	0.969830	-0.129731	-0.974668	0.192108	-0.114528
645	683225991													-9.774018	1.046777	-1.938377	-0.083678	0.157165	0.984021	0.207258	0.968634	-0.137083	-0.974701	0.192476	-0.113627
646	683234324													-9.729239	1.061723	-1.871697	-0.081357	0.164259	0.983056	0.207996	0.967408	-0.144431	-0.974740	0.192721	-0.112870
647	683242657													-9.669677	1.093800	-1.790009	-0.078720	0.171746	0.981991	0.208841	0.966031	-0.152213	-0.974776	0.193098	-0.111913
648	683250990													-9.649351	1.171991	-1.706126	-0.076169	0.179453	0.980813	0.209535	0.964587	-0.160212	-0.974830	0.193312	-0.111074
649	683259323													-9.637070	1.178313	-1.690855	-0.073318	0.187418	0.979540	0.210367	0.962991	-0.168506	-0.974869	0.193709	-0.110031
650	683267656													-9.640428	1.098589	-1.700134	-0.070737	0.194864	0.978276	0.211046	0.961454	-0.176253	-0.974913	0.193994	-0.109136
651	683275989													-9.580999	1.098937	-1.661317	-0.067658	0.202499	0.976942	0.211899	0.959764	-0.184263	-0.974947	0.194546	-0.107845
652	683284322													-9.497566	1.047353	-1.612925	-0.064618	0.210324	0.975494	0.212669	0.957983	-0.192461	-0.974985	0.195021	-0.106632
653	683292655													-9.504676	1.026040	-1.588200	-0.061225	0.218280	0.973964	0.213670	0.956040	-0.200831	-0.974986	0.195811	-0.105173
654	683300988													-9.470523	1.001337	-1.531348	-0.058060	0.225798	0.972442	0.214645	0.954127	-0.208730	-0.974965	0.196611	-0.103863
655	683309321													-9.472773	1.013587	-1.553103	-0.054439	0.233543	0.970821	0.215849	0.952027	-0.216918	-0.974908	0.197742	-0.102237
656	683317654													-9.501070	1.001841	-1.670996	-0.050779	0.241418	0.969092	0.216962	0.949836	-0.225253	-0.974858	0.198818	-0.100610
657	683325987													-9.500913	1.024558	-1.579641	-0.046714	0.249579	0.967227	0.218278	0.947434	-0.233930	-0.974768	0.200196	-0.098736
658	683334320													-9.483226	1.030784	-1.409117	-0.042915	0.257686	0.965275	0.219536	0.944983	-0.242509	-0.974660	0.201506	-0.097126
659	683342653													-9.455187	0.991366	-1.366101	-0.038874	0.265810	0.963241	0.221023	0.942380	-0.251133	-0.974494	0.203136	-0.095384
660	683350986													-9.380873	0.997706	-1.325928	-0.035062	0.273642	0.961192	0.222450	0.939792	-0.259436	-0.974313	0.204721	-0.093823
661	683359319													-9.350525	0.945783	-1.413646	-0.030760	0.281645	0.959025	0.224081	0.937000	-0.267990	-0.974085	0.206656	-0.091933
662	683367652													-9.380965	0.956465	-1.385432	-0.026543	0.289635	0.956769	0.225619	0.934146	-0.276527	-0.973854	0.208525	-0.090142
663	683375985													-9.417323	1.004984	-1.434887	-0.021817	0.298128	0.954277	0.227337	0.930979	-0.285652	-0.973572	0.210710	-0.088087
664	683384318													-9.397705	1.031640	-1.365170	-0.017242	0.306618	0.951676	0.228953	0.927738	-0.294758	-0.973285	0.212807	-0.086197
665	683392651													-9.412648	1.083990	-1.317461	-0.012230	0.315314	0.948908	0.230810	0.924242	-0.304143	-0.972922	0.215298	-0.084081
666	683400984													-9.365514	1.120749	-1.192471	-0.007452	0.323770	0.946107	0.232632	0.920735	-0.313255	-0.972536	0.217761	-0.082181
667	683409317													-9.249633	1.187902	-1.169314	-0.002196	0.332341	0.943157	0.234732	0.916978	-0.322570	-0.972058	0.220681	-0.080024
668	683417650													-9.141930	1.264545	-1.172650	0.002923	0.340812	0.940127	0.236806	0.913154	-0.331771	-0.971553	0.223598	-0.078037
669	683425983													-9.110119	1.368075	-1.191479	0.008600	0.349645	0.936843	0.239074	0.908988	-0.341444	-0.970963	0.226911	-0.075774
670	683434316													-9.132234	1.549073	-1.069884	0.013982	0.358249	0.933521	0.241213	0.904831	-0.350852	-0.970372	0.230083	-0.073762
671	683442649													-9.312384	1.748883	-0.527282	0.019736	0.366734	0.930116	0.243490	0.900525	-0.360233	-0.969703	0.233583	-0.071523
672	683450982													-9.621866	2.373454	-0.028567	0.026078	0.375770	0.926346	0.245215	0.895945	-0.370341	-0.969118	0.236812	-0.068780
673	683459315													-9.838305	2.615499	-1.105277	0.031429	0.383466	0.923020	0.247386	0.891759	-0.378902	-0.968407	0.240250	-0.066837
674	683467648													-10.391565	2.265352	-0.833872	0.035571	0.388713	0.920672	0.249529	0.888621	-0.384822	-0.967714	0.243423	-0.065387
675	683475981													-10.293041	2.076149	-0.194829	0.040881	0.394043	0.918182	0.251426	0.885323	-0.391136	-0.967013	0.246845	-0.062880
676	683484314													-9.587536	2.027414	-0.420350	0.046835	0.400235	0.915215	0.252779	0.881650	-0.398492	-0.966390	0.250011	-0.059879
677	683492647													-9.022979	1.742364	-0.620266	0.053248	0.406924	0.911909	0.254168	0.877605	-0.406458	-0.965693	0.253421	-0.056697
678	683500980													-9.102709	1.384438	-0.638768	0.059380	0.413370	0.908625	0.255378	0.873650	-0.414148	-0.965016	0.256635	-0.053689
679	683509313													-9.484653	1.335560	-0.873848	0.066211	0.419968	0.905120	0.256581	0.869441	-0.422182	-0.964252	0.260190	-0.050190
680	683517646													-9.751968	1.605116	-0.835117	0.072961	0.426657	0.901466	0.257546	0.865157	-0.430317	-0.963508	0.263565	-0.046761
681	683525979													-9.881105	1.965163	-0.755146	0.079905	0.433580	0.897565	0.258700	0.860570	-0.438740	-0.962647	0.267258	-0.043403
682	683534312													-9.840884	2.283031	-0.748132	0.086312	0.440414	0.893636	0.259826	0.855991	-0.446957	-0.961790	0.270767	-0.040549
683	683542645													-9.665582	2.394336	-0.702701	0.092805	0.447254	0.889579	0.261134	0.851228	-0.455214	-0.960831	0.274546	-0.037795
684	683550978													-9.491285	2.430513	-0.551444	0.098884	0.453732	0.885635	0.262303	0.846636	-0.463039	-0.959906	0.278092	-0.035297
685	683559311													-9.308595	2.377868	-0.484281	0.105115	0.459942	0.881705	0.263657	0.841999	-0.470662	-0.958872	0.281942	-0.032761
686	683567644													-9.250414	2.361007	-0.177804	0.110988	0.465813	0.877895	0.264934	0.837519	-0.477883	-0.957858	0.285624	-0.030455
687	683575977													-9.257192	2.290577	-0.038123	0.117286	0.471631	0.873961	0.266363	0.832850	-0.485192	-0.956710	0.289697	-0.027943
688	683584310													-9.292540	2.269916	-0.036748	0.123410	0.477369	0.869993	0.267625	0.828202	-0.492401	-0.955587	0.293599	-0.025548
689	683592643													-9.384166	2.232933	0.040799	0.130082	0.483544	0.865601	0.268901	0.823094	-0.500209	-0.954343	0.297829	-0.022956
690	683600976													-9.485082	2.179079	-0.041518	0.136743	0.490068	0.860892	0.269897	0.817746	-0.508377	-0.953130	0.301869	-0.020447
691	683609309													-9.541498	2.177608	-0.056063	0.143883	0.497322	0.855552	0.270839	0.811748	-0.517408	-0.951811	0.306163	-0.017898
692	683617642													-9.501099	2.204747	-0.070284	0.150982	0.505434	0.849553	0.271405	0.805185	-0.527272	-0.950549	0.310182	-0.015609
693	683625975													-9.438917	2.294528	-0.043475	0.158522	0.514535	0.842689	0.271892	0.797734	-0.538233	-0.949182	0.314442	-0.013439
694	683634308													-9.372879	2.523507	-0.269190	0.165864	0.524196	0.835289	0.272054	0.789829	-0.549689	-0.947880	0.318417	-0.011605
695	683642641													-9.381107	2.859056	-0.358375	0.173511	0.533931	0.827534	0.272228	0.781536	-0.561332	-0.946460	0.322674	-0.009746
696	683650974													-9.504690	3.001361	-0.144850	0.180928	0.543525	0.819662	0.272238	0.773174	-0.572790	-0.945067	0.326777	-0.008080
697	683659307													-9.609408	3.052746	-0.224493	0.188476	0.553027	0.811565	0.272493	0.764479	-0.584225	-0.943517	0.331259	-0.006610
698	683667640													-9.598894	3.131018	-0.286871	0.195399	0.562081	0.803669	0.272741	0.755994	-0.595050	-0.942036	0.335465	-0.005582
699	683675973													-9.511355	3.284882	-0.016458	0.202330	0.570948	0.795664	0.273096	0.747343	-0.605720	-0.940469	0.339848	-0.004714
700	683684306													-9.374156	3.463721	-0.078508	0.208724	0.579550	0.787754	0.273207	0.738871	-0.615977	-0.939038	0.343789	-0.004117
701	683692639													-9.121359	3.553771	-0.056983	0.215082	0.587841	0.779861	0.273333	0.730400	-0.625943	-0.937565	0.347790	-0.003580
702	683700972													-8.838169	3.696210	0.058268	0.220900	0.595834	0.772130	0.273137	0.722213	-0.635456	-0.936269	0.351269	-0.003207
703	683709305													-8.625394	3.845700	0.057295	0.226720	0.603509	0.764444	0.272917	0.714072	-0.644684	-0.934941	0.354793	-0.002813
704	683717638													-8.451013	3.979031	-0.053420	0.232057	0.610783	0.757030	0.272430	0.706316	-0.653376	-0.933773	0.357858	-0.002490
705	683725971													-8.410432	4.143836	-0.169893	0.237208	0.617782	0.749718	0.271849	0.698699	-0.661753	-0.932647	0.360784	-0.002207
706	683734304													-8.446072	4.300698	-0.129160	0.242408	0.624357	0.742574	0.271278	0.691251	-0.669761	-0.931476	0.363799	-0.001809
707	683742637													-8.593669	4.429382	-0.199445	0.247384	0.630639	0.735592	0.270659	0.683989	-0.677423	-0.930347	0.366678	-0.001480
708	683750970													-8.734475	4.583817	-0.234527	0.251845	0.636578	0.728933	0.269917	0.677118	-0.684584	-0.929365	0.369160	-0.001295
709	683759303													-8.833860	4.777205	-0.207204	0.256286	0.642114	0.722500	0.269333	0.670423	-0.691370	-0.928319	0.371782	-0.001122
710	683767636													-8.842791	4.912792	-0.210407	0.260191	0.647169	0.716571	0.268806	0.664242	-0.697514	-0.927386	0.374105	-0.001133
711	683775969													-8.809733	4.938631	-0.238790	0.263821	0.651832	0.710995	0.268478	0.658358	-0.703196	-0.926454	0.376405	-0.001314
712	683784302													-8.789595	4.944164	-0.252128	0.267332	0.656038	0.705795	0.268445	0.652753	-0.708414	-0.925457	0.378849	-0.001608
713	683792635													-8.781493	4.896176	-0.295083	0.270589	0.659843	0.700991	0.268520	0.647526	-0.713167	-0.924488	0.381205	-0.001968
714	683800968													-8.836093	4.823156	-0.112807	0.273475	0.663533	0.696373	0.268496	0.642535	-0.717676	-0.923646	0.383240	-0.002438
715	683809301													-8.860669	4.722180	-0.191809	0.276189	0.667108	0.691872	0.268477	0.637664	-0.722014	-0.922843	0.385164	-0.002987
716	683817634													-8.936256	4.644032	-0.293895	0.278897	0.670460	0.687531	0.268566	0.632917	-0.726146	-0.922003	0.387168	-0.003544
717	683825967													-8.928640	4.628269	-0.401516	0.281530	0.673747	0.683232	0.268596	0.628234	-0.730190	-0.921193	0.389084	-0.004099
718	683834300													-8.917587	4.632701	-0.514963	0.283941	0.677026	0.678979	0.268442	0.623677	-0.734143	-0.920498	0.390720	-0.004655
719	683842633													-8.868033	4.615758	-0.519244	0.286212	0.680213	0.674828	0.268274	0.619233	-0.737956	-0.919844	0.392250	-0.005252
720	683850966													-8.822115	4.604689	-0.443549	0.288488	0.683227	0.670803	0.268198	0.614882	-0.741613	-0.919154	0.393854	-0.005854
721	683859299													-8.696879	4.600635	-0.434460	0.290476	0.686325	0.666770	0.268020	0.610566	-0.745235	-0.918580	0.395181	-0.006594
722	683867632													-8.551745	4.552844	-0.505836	0.292479	0.689312	0.662800	0.267878	0.606300	-0.748760	-0.917985	0.396547	-0.007322
723	683875965													-8.407156	4.434912	-0.467011	0.294206	0.692385	0.658821	0.267545	0.602105	-0.752256	-0.917531	0.397583	-0.008101
724	683884298													-8.286252	4.355921	-0.528506	0.295936	0.695367	0.654895	0.267202	0.597970	-0.755668	-0.917074	0.398618	-0.008843
725	683892631													-8.214011	4.320519	-0.575156	0.297337	0.698289	0.651140	0.266805	0.594047	-0.758896	-0.916736	0.399376	-0.009675
726	683900964													-8.141740	4.323368	-0.480824	0.298692	0.701060	0.647532	0.266473	0.590255	-0.761965	-0.916393	0.400143	-0.010510
727	683909297													-8.173648	4.318662	-0.454773	0.299980	0.703729	0.644033	0.266042	0.586623	-0.764915	-0.916097	0.400799	-0.011246
728	683917630													-8.134820	4.302701	-0.491980	0.301019	0.706348	0.640671	0.265468	0.583206	-0.767722	-0.915923	0.401177	-0.011956
729	683925963													-8.098638	4.359653	-0.328272	0.301933	0.708919	0.637393	0.264783	0.579930	-0.770436	-0.915820	0.401391	-0.012610
730	683934296													-8.097240	4.514595	-0.266949	0.302854	0.711433	0.634147	0.264032	0.576718	-0.773100	-0.915733	0.401572	-0.013179
731	683942629													-8.119843	4.603096	-0.289962	0.303633	0.713865	0.631034	0.263148	0.573710	-0.775635	-0.915729	0.401563	-0.013655
732	683950962													-8.173320	4.671394	-0.188361	0.304161	0.716204	0.628122	0.262114	0.570991	-0.777988	-0.915851	0.401273	-0.014054
733	683959295													-8.227120	4.739556	-0.187414	0.304551	0.718316	0.625516	0.261073	0.568610	-0.780079	-0.916018	0.400879	-0.014362
734	683967628													-8.284286	4.763876	-0.108922	0.304969	0.720178	0.623168	0.260056	0.566498	-0.781953	-0.916168	0.400531	-0.014522
735	683975961													-8.363686	4.716118	-0.057312	0.305134	0.721962	0.621019	0.259051	0.564601	-0.783657	-0.916398	0.399996	-0.014746
736	683984294													-8.440252	4.643311	0.063654	0.305350	0.723589	0.619016	0.258026	0.562870	-0.785238	-0.916615	0.399495	-0.014833
737	683992627													-8.455580	4.564198	0.115405	0.305449	0.725203	0.617075	0.256828	0.561284	-0.786765	-0.916919	0.398799	-0.014809
738	684000960													-8.405939	4.424901	0.094945	0.305616	0.726713	0.615213	0.255515	0.559832	-0.788226	-0.917230	0.398091	-0.014592
739	684009293													-8.328639	4.341040	0.117324	0.305686	0.728295	0.613305	0.254011	0.558414	-0.789717	-0.917624	0.397192	-0.014295
740	684017626													-8.294818	4.267479	0.064972	0.305797	0.729911	0.611325	0.252377	0.556971	-0.791258	-0.918038	0.396249	-0.013892
741	684025959													-8.348469	4.264126	-0.013627	0.305819	0.731553	0.609348	0.250628	0.555582	-0.792789	-0.918510	0.395170	-0.013440
742	684034292													-8.420954	4.294388	-0.054863	0.305703	0.733318	0.607281	0.248656	0.554191	-0.794382	-0.919084	0.393849	-0.012926
743	684042625													-8.521414	4.381605	-0.112197	0.305474	0.735099	0.605240	0.246614	0.552856	-0.795947	-0.919710	0.392402	-0.012402
744	684050958													-8.624315	4.445688	-0.003981	0.305197	0.736858	0.603237	0.244541	0.551575	-0.797474	-0.920356	0.390903	-0.011853
745	684059291													-8.638104	4.426359	0.043619	0.304697	0.738715	0.601216	0.242457	0.550278	-0.799005	-0.921072	0.389223	-0.011438
746	684067624													-8.710047	4.398672	0.245973	0.304021	0.740585	0.599253	0.240251	0.549095	-0.800484	-0.921874	0.387335	-0.010990
747	684075957													-8.708446	4.539012	0.280797	0.303312	0.742566	0.597157	0.237919	0.547816	-0.802055	-0.922711	0.385348	-0.010512
748	684084290													-8.778867	4.438241	0.182012	0.302731	0.744449	0.595104	0.235431	0.546642	-0.803589	-0.923540	0.383377	-0.009781
749	684092623													-8.824749	4.394948	0.141813	0.302151	0.746335	0.593033	0.232881	0.545469	-0.805128	-0.924376	0.381377	-0.008993
750	684100956													-8.874696	4.415285	0.062981	0.301693	0.748156	0.590969	0.230314	0.544302	-0.806654	-0.925168	0.379470	-0.008099
751	684109289													-8.904694	4.411708	-0.020616	0.301246	0.749917	0.588961	0.227710	0.543207	-0.808130	-0.925958	0.377558	-0.007124
752	684117622													-8.927542	4.380200	0.011884	0.300653	0.751548	0.587182	0.225133	0.542343	-0.809432	-0.926781	0.375552	-0.006142
753	684125955													-9.012100	4.380889	0.030338	0.300005	0.753119	0.585499	0.222580	0.541566	-0.810656	-0.927607	0.373522	-0.005157
754	684134288													-9.141670	4.395368	0.210066	0.299422	0.754662	0.583808	0.219920	0.540817	-0.811882	-0.928430	0.371486	-0.004032
755	684142621													-9.286541	4.253094	0.287923	0.298834	0.756293	0.581996	0.217099	0.539996	-0.813187	-0.929283	0.369359	-0.002822
756	684150954													-9.367914	4.100285	0.234971	0.298385	0.757951	0.580066	0.213891	0.539192	-0.814569	-0.930171	0.367126	-0.001232
757	684159287													-9.361036	3.946617	0.434340	0.298133	0.759567	0.578078	0.210388	0.538434	-0.815981	-0.931050	0.364892	0.000721
758	684167620													-9.350117	3.616270	0.549377	0.297929	0.760970	0.576336	0.206945	0.537908	-0.817208	-0.931886	0.362740	0.002780
759	684175953													-9.340607	3.724934	0.380806	0.297814	0.762390	0.574516	0.203549	0.537271	-0.818479	-0.932671	0.360697	0.004823
760	684184286													-9.309099	3.828053	0.203589	0.297895	0.763727	0.572696	0.200077	0.536656	-0.819738	-0.933396	0.358779	0.007063
761	684192619													-9.082610	3.823085	0.081155	0.297991	0.765059	0.570865	0.196423	0.536092	-0.820989	-0.934141	0.356779	0.009476
762	684200952													-8.748495	3.853892	0.143200	0.297985	0.766318	0.569176	0.192747	0.535679	-0.822130	-0.934908	0.354689	0.011919
763	684209285													-8.547820	3.951444	0.273606	0.297718	0.767738	0.567400	0.189090	0.535152	-0.823321	-0.935740	0.352407	0.014153
764	684217618													-8.565047	3.975036	0.378300	0.297290	0.769093	0.565787	0.185439	0.534785	-0.824389	-0.936606	0.350002	0.016366
765	684225951													-8.631648	3.910422	0.466838	0.296629	0.770229	0.564588	0.181977	0.534775	-0.825167	-0.937494	0.347510	0.018466
766	684234284													-8.777960	3.834108	0.423528	0.295711	0.771037	0.563966	0.178714	0.535293	-0.825544	-0.938411	0.344912	0.020497
767	684242617													-8.852161	3.646724	0.295769	0.294763	0.771542	0.563770	0.175608	0.536198	-0.825623	-0.939296	0.342366	0.022562
768	684250950													-8.874321	3.444516	0.183541	0.293820	0.771869	0.563815	0.172722	0.537268	-0.825537	-0.940126	0.339943	0.024541
769	684259283													-8.982374	3.376063	0.175288	0.292779	0.772109	0.564028	0.170057	0.538425	-0.825335	-0.940936	0.337558	0.026337
770	684267616													-9.092788	3.381655	0.246513	0.291591	0.772259	0.564438	0.167528	0.539731	-0.825000	-0.941759	0.335122	0.028005
771	684275949													-9.176969	3.350425	0.288113	0.290247	0.772278	0.565104	0.165208	0.541220	-0.824492	-0.942583	0.332667	0.029501
772	684284282													-9.229968	3.372939	0.321266	0.288743	0.772181	0.566007	0.163149	0.542856	-0.823826	-0.943403	0.330217	0.030765
773	684292615													-9.264114	3.353019	0.378354	0.287076	0.772037	0.567050	0.161215	0.544584	-0.823066	-0.944244	0.327700	0.031873
774	684300948													-9.179875	3.298194	0.315861	0.285333	0.771844	0.568192	0.159433	0.546352	-0.822241	-0.945075	0.325201	0.032835
775	684309281													-9.058429	3.257541	0.234028	0.283448	0.771530	0.569560	0.157829	0.548289	-0.821261	-0.945911	0.322678	0.033642
776	684317614													-8.901588	3.183178	0.187758	0.281510	0.771015	0.571216	0.156406	0.550460	-0.820080	-0.946726	0.320202	0.034368
777	684325947													-8.853971	3.122937	0.256515	0.279470	0.770381	0.573070	0.155148	0.552776	-0.818760	-0.947537	0.317729	0.034961
778	684334280													-8.841367	3.079099	0.213950	0.277355	0.769555	0.575203	0.154058	0.555322	-0.817241	-0.948336	0.315280	0.035465
779	684342613													-8.908928	3.074404	0.164862	0.275137	0.768674	0.577442	0.153033	0.557949	-0.815643	-0.949147	0.312782	0.035880
780	684350946													-8.922310	3.057149	0.245475	0.272802	0.767689	0.579856	0.152085	0.560727	-0.813914	-0.949973	0.310225	0.036213
781	684359279													-8.936678	3.003673	0.208239	0.270341	0.766479	0.582602	0.151270	0.563802	-0.811939	-0.950807	0.307630	0.036474
782	684367612													-8.921614	2.991380	0.206750	0.267729	0.765054	0.585674	0.150565	0.567175	-0.809717	-0.951657	0.304967	0.036659
783	684375945													-8.859429	2.926846	0.189049	0.264945	0.763393	0.589097	0.150009	0.570861	-0.807227	-0.952524	0.302241	0.036731
784	684384278													-8.875133	2.863171	0.158771	0.262006	0.761642	0.592667	0.149555	0.574657	-0.804613	-0.953408	0.299450	0.036657
785	684392611													-8.899251	2.809587	0.120576	0.258944	0.759821	0.596339	0.149183	0.578526	-0.801905	-0.954302	0.296613	0.036454
786	684400944													-8.954756	2.857024	0.076675	0.255805	0.758004	0.599994	0.148830	0.582366	-0.799187	-0.955203	0.293733	0.036158
787	684409277													-8.997843	2.998503	0.035367	0.252583	0.756195	0.603631	0.148475	0.586179	-0.796460	-0.956116	0.290796	0.035783
788	684417610													-9.054045	3.112216	0.081481	0.249222	0.754330	0.607350	0.148176	0.590053	-0.793651	-0.957043	0.287790	0.035281
789	684425943													-9.034566	3.145421	0.179827	0.245727	0.752343	0.611227	0.147910	0.594075	-0.790694	-0.957988	0.284701	0.034701
790	684434276													-9.085928	3.139548	0.237719	0.242040	0.750130	0.615403	0.147756	0.598369	-0.787479	-0.958950	0.281531	0.033993
791	684442609													-9.148787	3.077228	0.292459	0.238251	0.747832	0.619664	0.147675	0.602724	-0.784166	-0.959911	0.278337	0.033163
792	684450942													-9.201904	2.950493	0.317602	0.234433	0.745435	0.623993	0.147636	0.607135	-0.780763	-0.960856	0.275160	0.032279
793	684459275													-9.273637	2.760384	0.350883	0.230518	0.742903	0.628455	0.147641	0.611669	-0.777215	-0.961802	0.271948	0.031318
794	684467608													-9.346848	2.677767	0.224333	0.226475	0.740140	0.633168	0.147766	0.616426	-0.773424	-0.962743	0.268722	0.030237
795	684475941													-9.347955	2.655571	0.111353	0.222231	0.737026	0.638284	0.148032	0.621559	-0.769254	-0.963691	0.265439	0.029026
796	684484274													-9.427017	2.632881	0.004230	0.217777	0.733537	0.643814	0.148471	0.627071	-0.764682	-0.964640	0.262118	0.027652
797	684492607													-9.474684	2.571742	0.047948	0.213104	0.729644	0.649774	0.149035	0.632992	-0.759678	-0.965596	0.258730	0.026150
798	684500940													-9.537025	2.359088	0.020228	0.208337	0.725438	0.656000	0.149674	0.639170	-0.754361	-0.966537	0.255347	0.024584
799	684509273													-9.582802	2.222211	0.010023	0.203498	0.720940	0.662445	0.150398	0.645554	-0.748759	-0.967455	0.252002	0.022941
800	684517606													-9.579036	2.066111	-0.040536	0.198540	0.716167	0.669094	0.151239	0.652120	-0.742877	-0.968353	0.248684	0.021160
801	684525939													-9.623000	1.972589	-0.063317	0.193428	0.711111	0.675949	0.152191	0.658873	-0.736698	-0.969239	0.245371	0.019220
802	684534272													-9.637736	1.910437	-0.071115	0.188281	0.705895	0.682834	0.153192	0.665650	-0.730371	-0.970094	0.242120	0.017192
803	684542605													-9.612011	1.976606	-0.118868	0.183082	0.700604	0.689663	0.154295	0.672349	-0.723975	-0.970914	0.238959	0.014995
804	684550938													-9.610823	2.049525	0.055632	0.177822	0.695176	0.696499	0.155484	0.679040	-0.717447	-0.971702	0.235872	0.012659
805	684559271													-9.576182	2.080103	0.068978	0.172675	0.689708	0.703197	0.156630	0.685610	-0.710919	-0.972446	0.232900	0.010359
806	684567604													-9.567196	2.054313	0.032916	0.167543	0.683999	0.709982	0.157779	0.692276	-0.704173	-0.973157	0.230000	0.008065
807	684575937													-9.553214	1.869420	-0.106149	0.162340	0.678116	0.716801	0.159050	0.698956	-0.697255	-0.973832	0.227200	0.005615
808	684584270													-9.603369	1.625446	0.027342	0.157159	0.671924	0.723753	0.160308	0.705783	-0.690051	-0.974475	0.224472	0.003206
809	684592603													-9.504500	1.438962	-0.192378	0.152108	0.665781	0.730479	0.161567	0.712387	-0.682935	-0.975069	0.221901	0.000792
810	684600936													-9.456880	1.243253	-0.383272	0.146975	0.659514	0.737184	0.163057	0.718927	-0.675690	-0.975608	0.219512	-0.001874
811	684609269													-9.398608	1.202510	-0.342612	0.142016	0.653639	0.743362	0.164518	0.724943	-0.668874	-0.976097	0.217288	-0.004582
812	684617602													-9.415267	1.095717	-0.277805	0.136965	0.647836	0.749366	0.166120	0.730760	-0.662113	-0.976547	0.215171	-0.007530
813	684625935													-9.523436	1.101369	-0.293775	0.132159	0.642635	0.754688	0.167592	0.735918	-0.656001	-0.976958	0.213176	-0.010443
814	684634268													-9.603814	1.124734	-0.367937	0.127291	0.637635	0.759749	0.169101	0.740814	-0.650076	-0.977344	0.211223	-0.013526
815	684642601													-9.787681	1.075079	-0.325776	0.122587	0.633158	0.764254	0.170504	0.745176	-0.644702	-0.977702	0.209340	-0.016607
816	684650934													-9.889310	1.112848	-0.298164	0.118008	0.628895	0.768482	0.171750	0.749300	-0.639571	-0.978047	0.207461	-0.019589
817	684659267													-9.876074	1.252602	-0.386066	0.113753	0.625192	0.772137	0.172802	0.752885	-0.635062	-0.978366	0.205667	-0.022392
818	684667600													-9.857658	1.316872	-0.458822	0.109613	0.621588	0.775637	0.173729	0.756347	-0.630681	-0.978674	0.203882	-0.025083
819	684675933													-9.776870	1.355647	-0.634008	0.105774	0.618476	0.778652	0.174457	0.759358	-0.626850	-0.978967	0.202146	-0.027577
820	684684266													-9.660208	1.373283	-0.822274	0.101927	0.615347	0.781639	0.175130	0.762360	-0.623006	-0.979255	0.200389	-0.030061
821	684692599													-9.656840	1.297294	-1.021208	0.098033	0.612270	0.784548	0.175881	0.765276	-0.619207	-0.979518	0.198690	-0.032665
822	684700932													-9.721250	1.163731	-1.086185	0.094107	0.608979	0.787584	0.176666	0.768325	-0.615196	-0.979762	0.197033	-0.035281
823	684709265													-9.670240	1.007370	-1.193643	0.090560	0.606052	0.790253	0.177356	0.771015	-0.611622	-0.979971	0.195544	-0.037664
824	684717598													-9.587677	0.901278	-1.091817	0.086991	0.602994	0.792989	0.178041	0.773781	-0.607919	-0.980170	0.194068	-0.040046
825	684725931													-9.441212	0.931932	-1.086941	0.083553	0.600025	0.795606	0.178774	0.776419	-0.604329	-0.980336	0.192727	-0.042397
826	684734264													-9.458408	0.921820	-1.027267	0.080037	0.596860	0.798343	0.179594	0.779171	-0.600532	-0.980479	0.191443	-0.044830
827	684742597													-9.547285	0.893600	-1.022384	0.076739	0.594091	0.800729	0.180428	0.781563	-0.597163	-0.980590	0.190300	-0.047215
828	684750930													-9.564589	0.884486	-1.093943	0.073369	0.591312	0.803098	0.181338	0.783935	-0.593769	-0.980680	0.189196	-0.049711
829	684759263													-9.466118	0.899742	-1.149199	0.070106	0.588839	0.805204	0.182364	0.786022	-0.590688	-0.980728	0.188252	-0.052278
830	684767596													-9.328350	0.962776	-1.260306	0.066660	0.586086	0.807502	0.183565	0.788285	-0.587291	-0.980745	0.187378	-0.055037
831	684775929													-9.246955	0.986876	-1.365001	0.063326	0.583582	0.809581	0.184956	0.790294	-0.584146	-0.980704	0.186728	-0.057891
832	684784262													-9.295809	0.906768	-1.443512	0.059980	0.581081	0.811632	0.186459	0.792263	-0.580993	-0.980630	0.186184	-0.060828
833	684792595													-9.267238	0.891252	-1.572696	0.057003	0.579155	0.813222	0.188080	0.793732	-0.578459	-0.980498	0.185925	-0.063683
834	684800928													-9.172421	0.878531	-1.714398	0.053950	0.577307	0.814743	0.189909	0.795107	-0.575969	-0.980318	0.185801	-0.066740
835	684809261													-9.206900	0.939183	-1.851370	0.051166	0.575858	0.815947	0.191896	0.796124	-0.573901	-0.980081	0.185941	-0.069770
836	684817594													-9.225074	0.972359	-1.804296	0.048264	0.574278	0.817237	0.194084	0.797204	-0.571662	-0.979797	0.186204	-0.072982
837	684825927													-9.248423	1.033944	-1.722365	0.045553	0.572979	0.818303	0.196502	0.798010	-0.569708	-0.979445	0.186750	-0.076239
838	684834260													-9.282025	1.125822	-1.207881	0.042997	0.572029	0.819106	0.198955	0.798541	-0.568111	-0.979065	0.187392	-0.079473
839	684842593													-9.439096	1.607826	-0.484575	0.041301	0.572534	0.818840	0.201043	0.798015	-0.568114	-0.978711	0.188086	-0.082145
840	684850926													-9.740453	2.232840	-1.597841	0.038780	0.572805	0.818774	0.203351	0.797720	-0.567707	-0.978338	0.188514	-0.085545
841	684859259													-10.357550	2.553322	-1.633974	0.035563	0.571789	0.819629	0.206078	0.798326	-0.565869	-0.977889	0.189032	-0.089442
842	684867592													-10.642597	2.767082	-0.984830	0.032333	0.569305	0.821490	0.208676	0.799961	-0.562598	-0.977450	0.189615	-0.092935
843	684875925													-10.168406	2.641186	-0.934394	0.030049	0.567060	0.823128	0.210899	0.801364	-0.559765	-0.977046	0.190417	-0.095512
844	684884258													-9.442691	2.199026	-1.011160	0.027722	0.564751	0.824795	0.213085	0.802809	-0.556859	-0.976640	0.191189	-0.098084
845	684892591													-8.951237	1.791799	-0.969571	0.025366	0.562579	0.826354	0.215447	0.804119	-0.554054	-0.976186	0.192090	-0.100808
846	684900924													-8.966304	1.564762	-1.079343	0.022786	0.560221	0.828030	0.217878	0.805554	-0.551010	-0.975710	0.192965	-0.103704
847	684909257													-9.198063	1.633427	-1.104872	0.020572	0.558242	0.829423	0.220209	0.806696	-0.548407	-0.975236	0.193928	-0.106334
848	684917590													-9.408639	1.752229	-1.218134	0.018164	0.556129	0.830897	0.222518	0.807944	-0.545631	-0.974759	0.194800	-0.109073
849	684925923													-9.616392	1.784793	-1.242655	0.015759	0.554116	0.832290	0.224816	0.809116	-0.542945	-0.974274	0.195668	-0.111824
850	684934256													-9.700527	1.778221	-1.349523	0.013092	0.551756	0.833903	0.227096	0.810540	-0.539863	-0.973784	0.196444	-0.114690
