// Start Time: Unknown
// Update Rate: 100.0Hz
//Filter Profile: human (46.1)
// Option Flags: AHS Disabled ICC Disabled
// Firmware Version: 4.0.2
PacketCounter	SampleTimeFine	Year	Month	Day	Second	UTC_Nano	UTC_Year	UTC_Month	UTC_Day	UTC_Hour	UTC_Minute	UTC_Second	UTC_Valid	Acc_X	Acc_Y	Acc_Z	Mat[1][1]	Mat[1][2]	Mat[1][3]	Mat[2][1]	Mat[2][2]	Mat[2][3]	Mat[3][1]	Mat[3][2]	Mat[3][3]
0	2973970240													0.000000	0.000000	0.000000	0.069180	-0.930453	0.359821	-0.191540	0.341586	0.920126	-0.979044	-0.132575	-0.154588
1	2973978573													-9.564919	-0.832966	-1.519747	0.069254	-0.930124	0.360656	-0.191319	0.342430	0.919858	-0.979082	-0.132704	-0.154235
2	2973986906													-9.590618	-0.745759	-1.451707	0.063098	-0.930367	0.361160	-0.191394	0.343884	0.919300	-0.979483	-0.127130	-0.156368
3	2973995239													-9.636296	-0.799819	-1.346770	0.063248	-0.930218	0.361518	-0.191190	0.344240	0.919209	-0.979513	-0.127257	-0.156076
4	2974003572													-9.670521	-0.829558	-1.469516	0.051780	-0.929206	0.365915	-0.187037	0.350900	0.917544	-0.980987	-0.115950	-0.155626
5	2974011905													-9.572209	-0.761501	-1.572347	0.052030	-0.929138	0.366055	-0.187107	0.350990	0.917495	-0.980961	-0.116229	-0.155586
6	2974020238													-9.518771	-0.711358	-1.621364	0.043824	-0.927368	0.371575	-0.183416	0.358142	0.915474	-0.982058	-0.108273	-0.154398
7	2974028571													-9.506719	-0.652353	-1.546393	0.044108	-0.927265	0.371798	-0.183696	0.358287	0.915361	-0.981993	-0.108673	-0.154531
8	2974036904													-9.532356	-0.726309	-1.527471	0.037811	-0.925609	0.376587	-0.182264	0.364147	0.913333	-0.982522	-0.103173	-0.154937
9	2974045237													-9.550547	-0.979710	-1.711421	0.038114	-0.925662	0.376426	-0.182540	0.363912	0.913371	-0.982459	-0.103525	-0.155100
10	2974053570													-9.665039	-1.127355	-1.957829	0.033439	-0.924624	0.379410	-0.181629	0.367679	0.912043	-0.982798	-0.099410	-0.155644
11	2974061903													-9.750297	-1.179677	-1.871774	0.033845	-0.924727	0.379124	-0.181786	0.367317	0.912158	-0.982756	-0.099792	-0.155670
12	2974070236													-9.671070	-1.285643	-1.808480	0.031293	-0.923698	0.381841	-0.182576	0.370318	0.910786	-0.982694	-0.098216	-0.157056
13	2974078569													-9.663432	-1.421883	-1.640881	0.031711	-0.923669	0.381876	-0.182458	0.370299	0.910817	-0.982702	-0.098559	-0.156788
14	2974086902													-9.653079	-1.391030	-1.565145	0.030700	-0.922701	0.384291	-0.183914	0.372693	0.909547	-0.982463	-0.098599	-0.158256
15	2974095235													-9.634905	-1.368592	-1.417353	0.030967	-0.922417	0.384951	-0.183756	0.373317	0.909323	-0.982484	-0.098896	-0.157939
16	2974103568													-9.689050	-1.281363	-1.386295	0.031172	-0.921291	0.387622	-0.185185	0.375773	0.908021	-0.982209	-0.100086	-0.158896
17	2974111901													-9.699585	-1.031613	-1.351963	0.031577	-0.921017	0.388239	-0.185020	0.376334	0.907822	-0.982227	-0.100498	-0.158523
18	2974120234													-9.538822	-0.848833	-1.307965	0.032556	-0.920090	0.390352	-0.186001	0.378159	0.906862	-0.982010	-0.102129	-0.158826
19	2974128567													-9.544928	-0.813388	-1.314370	0.032975	-0.919930	0.390694	-0.186085	0.378421	0.906736	-0.981980	-0.102602	-0.158707
20	2974136900													-9.586872	-0.779325	-1.334807	0.033744	-0.919169	0.392415	-0.186590	0.379941	0.905996	-0.981858	-0.103793	-0.158687
21	2974145233													-9.519927	-0.918002	-1.541008	0.034116	-0.919304	0.392066	-0.186807	0.379514	0.906130	-0.981804	-0.104155	-0.158785
22	2974153566													-9.512651	-1.168611	-1.826857	0.034392	-0.918938	0.392900	-0.186948	0.380278	0.905781	-0.981768	-0.104603	-0.158716
23	2974161899													-9.619538	-1.421343	-1.837721	0.034682	-0.919266	0.392105	-0.187166	0.379425	0.906094	-0.981716	-0.104814	-0.158896
24	2974170232													-9.756612	-1.576459	-1.688684	0.034900	-0.918701	0.393408	-0.187306	0.380660	0.905547	-0.981681	-0.105292	-0.158793
25	2974178565													-9.776557	-1.611444	-1.700044	0.035339	-0.918527	0.393776	-0.187108	0.380973	0.905456	-0.981703	-0.105677	-0.158400
26	2974186898													-9.720534	-1.296253	-1.551589	0.036051	-0.917518	0.396056	-0.187248	0.383093	0.904532	-0.981651	-0.106770	-0.157993
27	2974195231													-9.612503	-0.934399	-1.535825	0.036579	-0.917039	0.397115	-0.186943	0.384087	0.904173	-0.981690	-0.107312	-0.157384
28	2974203564													-9.478719	-0.671975	-1.617243	0.037476	-0.916226	0.398906	-0.187227	0.385680	0.903436	-0.981601	-0.108543	-0.157089
29	2974211897													-9.409092	-0.752089	-1.630777	0.037842	-0.916184	0.398966	-0.187119	0.385694	0.903453	-0.981608	-0.108843	-0.156840
30	2974220230													-9.493452	-1.009247	-1.641912	0.038095	-0.915612	0.400255	-0.187479	0.386884	0.902869	-0.981530	-0.109434	-0.156920
31	2974228563													-9.687329	-1.296844	-1.601664	0.038362	-0.915769	0.399870	-0.187440	0.386466	0.903056	-0.981527	-0.109595	-0.156826
32	2974236896													-9.694937	-1.388165	-1.586520	0.038747	-0.915518	0.400407	-0.187615	0.386916	0.902827	-0.981478	-0.110105	-0.156773
33	2974245229													-9.662828	-1.310329	-1.336812	0.039235	-0.915404	0.400621	-0.187402	0.387074	0.902804	-0.981499	-0.110499	-0.156361
34	2974253562													-9.662225	-1.166460	-1.282997	0.039646	-0.914429	0.402800	-0.187543	0.389143	0.901884	-0.981456	-0.111299	-0.156067
35	2974261895													-9.630524	-1.028262	-1.301938	0.040233	-0.914186	0.403294	-0.187265	0.389570	0.901758	-0.981485	-0.111803	-0.155522
36	2974270228													-9.559538	-0.936107	-1.479338	0.040660	-0.913347	0.405148	-0.187325	0.391325	0.900985	-0.981456	-0.112528	-0.155182
37	2974278561													-9.480858	-1.199845	-1.614397	0.040974	-0.913480	0.404815	-0.187230	0.390958	0.901164	-0.981461	-0.112718	-0.155012
38	2974286894													-9.611113	-1.497855	-1.671420	0.041136	-0.913155	0.405533	-0.187236	0.391641	0.900866	-0.981453	-0.112988	-0.154865
39	2974295227													-9.817341	-1.676421	-1.518453	0.041289	-0.913284	0.405226	-0.186963	0.391346	0.901051	-0.981499	-0.112965	-0.154592
40	2974303560													-9.864411	-1.735957	-1.505031	0.041460	-0.912646	0.406643	-0.186724	0.392745	0.900492	-0.981537	-0.113264	-0.154130
41	2974311893													-9.804538	-1.514693	-1.438929	0.041781	-0.912466	0.407014	-0.186139	0.393129	0.900445	-0.981635	-0.113383	-0.153420
42	2974320226													-9.740403	-1.211401	-1.183027	0.042373	-0.911612	0.408862	-0.185669	0.394916	0.899760	-0.981698	-0.114038	-0.152525
43	2974328559													-9.586115	-1.015123	-1.296880	0.042862	-0.911421	0.409236	-0.184937	0.395296	0.899744	-0.981815	-0.114247	-0.151613
44	2974336892													-9.513328	-0.952454	-1.410445	0.043524	-0.910878	0.410374	-0.184434	0.396377	0.899372	-0.981881	-0.114832	-0.150745
45	2974345225													-9.509692	-1.075460	-1.325066	0.043959	-0.911145	0.409735	-0.183739	0.395762	0.899785	-0.981992	-0.114838	-0.150015
46	2974353558													-9.667139	-1.364140	-1.310383	0.044392	-0.910856	0.410331	-0.183132	0.396356	0.899647	-0.982086	-0.115082	-0.149211
47	2974361891													-9.850460	-1.659241	-1.180954	0.044724	-0.911159	0.409621	-0.182292	0.395704	0.900105	-0.982227	-0.114927	-0.148399
48	2974370224													-9.942469	-1.833192	-1.131466	0.045293	-0.910919	0.410091	-0.181415	0.396186	0.900070	-0.982363	-0.115164	-0.147310
49	2974378557													-9.929101	-1.724585	-1.059995	0.045815	-0.910914	0.410044	-0.180383	0.396183	0.900278	-0.982529	-0.115212	-0.146162
50	2974386890													-9.858290	-1.369074	-1.037577	0.046725	-0.910407	0.411066	-0.179358	0.397181	0.900043	-0.982674	-0.115782	-0.144731
51	2974395223													-9.721915	-1.069223	-1.042715	0.047288	-0.910297	0.411246	-0.178328	0.397399	0.900152	-0.982834	-0.115903	-0.143539
52	2974403556													-9.504850	-1.099861	-1.151557	0.048087	-0.909979	0.411857	-0.177399	0.397998	0.900071	-0.982963	-0.116345	-0.142291
53	2974411889													-9.550193	-1.129547	-1.499169	0.048403	-0.910456	0.410764	-0.176521	0.396975	0.900695	-0.983106	-0.116104	-0.141500
54	2974420222													-9.590556	-1.353609	-1.552763	0.049038	-0.910979	0.409526	-0.175657	0.395763	0.901397	-0.983229	-0.116139	-0.140612
55	2974428555													-9.558073	-1.690134	-1.458069	0.049161	-0.911585	0.408163	-0.174914	0.394484	0.902102	-0.983356	-0.115742	-0.140056
56	2974436888													-9.492966	-2.181410	-1.408685	0.049621	-0.911729	0.407784	-0.174103	0.394140	0.902409	-0.983476	-0.115775	-0.139177
57	2974445221													-9.870757	-2.034715	-1.532817	0.049863	-0.912017	0.407111	-0.173322	0.393532	0.902824	-0.983602	-0.115579	-0.138450
58	2974453554													-9.813743	-1.441417	-1.388417	0.050792	-0.911712	0.407678	-0.172338	0.394080	0.902774	-0.983728	-0.116112	-0.137106
59	2974461887													-9.579129	-0.991691	-1.418161	0.051472	-0.911704	0.407611	-0.171417	0.394030	0.902971	-0.983853	-0.116349	-0.136000
60	2974470220													-9.441526	-0.689863	-1.497076	0.052871	-0.912141	0.406452	-0.170682	0.392777	0.903656	-0.983907	-0.117151	-0.134920
61	2974478553													-9.472809	-0.466651	-1.520678	0.053683	-0.912984	0.404447	-0.170071	0.390754	0.904648	-0.983969	-0.117348	-0.134295
62	2974486886													-9.349225	-0.409758	-1.664167	0.054805	-0.913964	0.402078	-0.169646	0.388306	0.905781	-0.983980	-0.117852	-0.133769
63	2974495219													-9.344990	-0.599477	-1.746379	0.055364	-0.915441	0.398625	-0.169275	0.384853	0.907323	-0.984013	-0.117710	-0.133655
64	2974503552													-9.377732	-0.887711	-1.864145	0.055904	-0.916722	0.395595	-0.169141	0.381792	0.908640	-0.984005	-0.117708	-0.133711
65	2974511885													-9.587574	-1.224731	-1.739678	0.056182	-0.918198	0.392118	-0.168986	0.378327	0.910117	-0.984016	-0.117394	-0.133907
66	2974520218													-9.676533	-1.465487	-1.709194	0.056332	-0.918813	0.390653	-0.168956	0.376858	0.910731	-0.984012	-0.117306	-0.134010
67	2974528551													-9.618977	-1.531358	-1.769051	0.056557	-0.919647	0.388654	-0.168609	0.374888	0.911609	-0.984059	-0.117088	-0.133858
68	2974536884													-9.550182	-1.479701	-1.791849	0.057167	-0.920538	0.386448	-0.168340	0.372651	0.912575	-0.984070	-0.117223	-0.133660
69	2974545217													-9.619911	-1.302800	-1.739851	0.057354	-0.920684	0.386072	-0.167972	0.372297	0.912787	-0.984122	-0.117201	-0.133296
70	2974553550													-9.641105	-1.115817	-1.670906	0.058107	-0.921366	0.384329	-0.167550	0.370518	0.913588	-0.984150	-0.117481	-0.132846
71	2974561883													-9.496082	-0.909515	-1.631483	0.058314	-0.921308	0.384435	-0.166989	0.370663	0.913632	-0.984233	-0.117474	-0.132234
72	2974570216													-9.391109	-0.774505	-1.544575	0.058862	-0.921881	0.382975	-0.166673	0.369180	0.914290	-0.984254	-0.117648	-0.131922
73	2974578549													-9.437741	-0.782697	-1.351360	0.058990	-0.922154	0.382298	-0.166262	0.368540	0.914623	-0.984316	-0.117515	-0.131579
74	2974586882													-9.510477	-0.920807	-1.183724	0.058846	-0.921757	0.383276	-0.166310	0.369523	0.914217	-0.984316	-0.117541	-0.131553
75	2974595215													-9.621611	-1.114029	-1.062639	0.059067	-0.922229	0.382105	-0.166066	0.368362	0.914730	-0.984344	-0.117485	-0.131393
76	2974603548													-9.638737	-1.237835	-0.967212	0.059431	-0.922462	0.381488	-0.166142	0.367692	0.914986	-0.984309	-0.117759	-0.131407
77	2974611881													-9.663321	-1.228697	-0.954019	0.060025	-0.922799	0.380577	-0.166022	0.366724	0.915396	-0.984293	-0.118131	-0.131192
78	2974620214													-9.667205	-1.123004	-1.029393	0.061206	-0.923949	0.377587	-0.165937	0.363613	0.916652	-0.984235	-0.118761	-0.131062
79	2974628547													-9.643405	-1.072607	-1.152018	0.061992	-0.924357	0.376459	-0.165774	0.362409	0.917158	-0.984213	-0.119264	-0.130768
80	2974636880													-9.685222	-1.077014	-1.217277	0.062940	-0.925004	0.374709	-0.165747	0.360551	0.917895	-0.984158	-0.119879	-0.130624
81	2974645213													-9.695021	-0.990948	-1.316114	0.063711	-0.925492	0.373371	-0.165636	0.359136	0.918469	-0.984127	-0.120360	-0.130414
82	2974653546													-9.748533	-0.854150	-1.296227	0.064887	-0.926633	0.370325	-0.165386	0.355989	0.919739	-0.984092	-0.120926	-0.130153
83	2974661879													-9.685137	-0.910408	-1.351465	0.065703	-0.927007	0.369245	-0.164990	0.354858	0.920247	-0.984104	-0.121385	-0.129631
84	2974670212													-9.589647	-1.042319	-1.339084	0.066759	-0.927853	0.366923	-0.164686	0.352453	0.921225	-0.984084	-0.121927	-0.129275
85	2974678545													-9.587727	-0.940444	-1.523815	0.067571	-0.928257	0.365749	-0.164501	0.351205	0.921735	-0.984060	-0.122449	-0.128968
86	2974686878													-9.677279	-0.747317	-1.546447	0.068920	-0.929637	0.361974	-0.164292	0.347307	0.923248	-0.984001	-0.123099	-0.128795
87	2974695211													-9.639063	-0.647042	-1.478010	0.069901	-0.929980	0.360904	-0.164135	0.346136	0.923715	-0.983958	-0.123805	-0.128447
88	2974703544													-9.509557	-0.502199	-1.565713	0.070603	-0.929694	0.361503	-0.164241	0.346626	0.923512	-0.983890	-0.124576	-0.128221
89	2974711877													-9.484407	-0.366557	-1.552600	0.071749	-0.930194	0.359989	-0.164094	0.344993	0.924150	-0.983832	-0.125378	-0.127886
90	2974720210													-9.540119	-0.440377	-1.567764	0.072800	-0.930893	0.357963	-0.164039	0.342852	0.924956	-0.983764	-0.126056	-0.127743
91	2974728543													-9.630117	-0.699196	-1.574674	0.073839	-0.931731	0.355564	-0.163938	0.340347	0.925899	-0.983703	-0.126658	-0.127616
92	2974736876													-9.782248	-0.997231	-1.469447	0.074853	-0.933000	0.352004	-0.163801	0.336696	0.927257	-0.983649	-0.127067	-0.127623
93	2974745209													-9.901605	-1.218949	-1.329756	0.075890	-0.933819	0.349603	-0.163550	0.334208	0.928201	-0.983612	-0.127618	-0.127363
94	2974753542													-9.817526	-1.400853	-1.348151	0.076600	-0.934317	0.348115	-0.163434	0.332653	0.928779	-0.983576	-0.128038	-0.127218
95	2974761875													-9.714744	-1.434144	-1.307590	0.077719	-0.934984	0.346071	-0.163105	0.330520	0.929598	-0.983543	-0.128693	-0.126813
96	2974770208													-9.682777	-1.319227	-1.212582	0.079266	-0.936613	0.341282	-0.162606	0.325625	0.931412	-0.983502	-0.129324	-0.126487
97	2974778541													-9.671032	-1.255128	-1.255484	0.080504	-0.937186	0.339414	-0.162250	0.323656	0.932160	-0.983460	-0.130112	-0.126003
98	2974786874													-9.570782	-1.166429	-1.325592	0.081414	-0.937532	0.338240	-0.162003	0.322405	0.932636	-0.983426	-0.130726	-0.125635
99	2974795207													-9.602591	-1.198532	-1.369382	0.082661	-0.938263	0.335900	-0.161603	0.319973	0.933543	-0.983388	-0.131450	-0.125177
100	2974803540													-9.648975	-1.262078	-1.483573	0.083953	-0.939462	0.332208	-0.161198	0.316190	0.934900	-0.983345	-0.132039	-0.124895
101	2974811873													-9.576478	-1.286759	-1.376498	0.085170	-0.940192	0.329827	-0.160798	0.313720	0.935801	-0.983306	-0.132738	-0.124462
102	2974820206													-9.553217	-1.240892	-1.342421	0.085556	-0.939647	0.331277	-0.160869	0.315106	0.935323	-0.983261	-0.133315	-0.124201
103	2974828539													-9.586541	-1.255544	-1.399868	0.086770	-0.940463	0.328634	-0.160502	0.312372	0.936303	-0.983214	-0.133989	-0.123842
104	2974836872													-9.610531	-1.378593	-1.255027	0.088000	-0.941755	0.324581	-0.160120	0.308234	0.937738	-0.983167	-0.134493	-0.123670
105	2974845205													-9.594893	-1.460745	-1.270116	0.089135	-0.942592	0.321830	-0.159748	0.305404	0.938727	-0.983125	-0.135085	-0.123355
106	2974853538													-9.671145	-1.558907	-1.298710	0.089988	-0.943171	0.319891	-0.159561	0.303392	0.939411	-0.983078	-0.135578	-0.123191
107	2974861871													-9.742188	-1.618107	-1.256804	0.091161	-0.943916	0.317352	-0.159212	0.300765	0.940315	-0.983027	-0.136246	-0.122865
108	2974870204													-9.697724	-1.575646	-1.205014	0.092254	-0.944718	0.314638	-0.158985	0.297957	0.941247	-0.982961	-0.136856	-0.122708
109	2974878537													-9.540734	-1.576873	-1.156006	0.093473	-0.945467	0.312016	-0.158689	0.295234	0.942154	-0.982894	-0.137580	-0.122439
110	2974886870													-9.544152	-1.667208	-1.298135	0.094706	-0.946454	0.308634	-0.158362	0.291756	0.943292	-0.982829	-0.138211	-0.122251
111	2974895203													-9.570089	-1.652714	-1.427619	0.095821	-0.947118	0.306244	-0.158040	0.289281	0.944108	-0.982772	-0.138864	-0.121964
112	2974903536													-9.600899	-1.549116	-1.514082	0.096828	-0.947753	0.303954	-0.157755	0.286915	0.944877	-0.982720	-0.139441	-0.121731
113	2974911869													-9.546731	-1.473085	-1.576674	0.097833	-0.948289	0.301956	-0.157400	0.284849	0.945561	-0.982677	-0.140035	-0.121394
114	2974920202													-9.525095	-1.411653	-1.533174	0.098668	-0.948788	0.300109	-0.157215	0.282931	0.946168	-0.982623	-0.140538	-0.121248
115	2974928535													-9.590206	-1.501737	-1.478368	0.099476	-0.949274	0.298301	-0.156838	0.281082	0.946781	-0.982602	-0.140966	-0.120921
116	2974936868													-9.618211	-1.572805	-1.485886	0.100133	-0.949760	0.296529	-0.156510	0.279281	0.947368	-0.982587	-0.141272	-0.120682
117	2974945201													-9.619417	-1.605407	-1.375156	0.100730	-0.950184	0.294964	-0.155962	0.277726	0.947916	-0.982614	-0.141486	-0.120217
118	2974953534													-9.680902	-1.671226	-1.313046	0.101186	-0.950711	0.293103	-0.155491	0.275882	0.948531	-0.982641	-0.141553	-0.119911
119	2974961867													-9.712716	-1.718364	-1.353654	0.101562	-0.951101	0.291705	-0.154835	0.274536	0.949029	-0.982706	-0.141551	-0.119381
120	2974970200													-9.634459	-1.729887	-1.303527	0.101869	-0.951543	0.290152	-0.154289	0.273028	0.949553	-0.982760	-0.141498	-0.118999
121	2974978533													-9.643659	-1.723320	-1.296667	0.102127	-0.951813	0.289174	-0.153595	0.272120	0.949926	-0.982842	-0.141429	-0.118403
122	2974986866													-9.631367	-1.652119	-1.301479	0.102363	-0.952138	0.288018	-0.152998	0.271024	0.950335	-0.982911	-0.141346	-0.117933
123	2974995199													-9.536233	-1.663308	-1.304032	0.102565	-0.952358	0.287218	-0.152248	0.270309	0.950660	-0.983006	-0.141233	-0.117270
124	2975003532													-9.514533	-1.615494	-1.487945	0.102708	-0.952648	0.286206	-0.151671	0.269365	0.951020	-0.983080	-0.141087	-0.116823
125	2975011865													-9.566935	-1.523734	-1.512904	0.102790	-0.952767	0.285779	-0.151131	0.269007	0.951207	-0.983155	-0.140965	-0.116342
126	2975020198													-9.600015	-1.406002	-1.420706	0.103004	-0.952888	0.285297	-0.150716	0.268559	0.951399	-0.983196	-0.140996	-0.115953
127	2975028531													-9.470053	-1.380027	-1.413436	0.103218	-0.952845	0.285363	-0.150180	0.268677	0.951451	-0.983256	-0.141063	-0.115366
128	2975036864													-9.402002	-1.342780	-1.512215	0.103518	-0.952875	0.285154	-0.149867	0.268478	0.951556	-0.983272	-0.141238	-0.115012
129	2975045197													-9.423267	-1.333080	-1.499538	0.103778	-0.952766	0.285425	-0.149522	0.268768	0.951529	-0.983297	-0.141425	-0.114567
130	2975053530													-9.488780	-1.345845	-1.424618	0.104080	-0.952692	0.285561	-0.149446	0.268880	0.951509	-0.983277	-0.141709	-0.114391
131	2975061863													-9.600428	-1.307968	-1.369257	0.104386	-0.952523	0.286015	-0.149180	0.269336	0.951422	-0.983285	-0.141982	-0.113982
132	2975070196													-9.575657	-1.335057	-1.245637	0.104815	-0.952432	0.286160	-0.149065	0.269448	0.951408	-0.983256	-0.142378	-0.113732
133	2975078529													-9.575395	-1.319921	-1.202022	0.105295	-0.952240	0.286621	-0.148794	0.269892	0.951324	-0.983246	-0.142818	-0.113270
134	2975086862													-9.524553	-1.209198	-1.214026	0.105908	-0.952161	0.286660	-0.148689	0.269876	0.951346	-0.983196	-0.143378	-0.112993
135	2975095195													-9.477240	-1.230735	-1.263851	0.106503	-0.951999	0.286976	-0.148507	0.270150	0.951296	-0.983160	-0.143933	-0.112606
136	2975103528													-9.526049	-1.384050	-1.254309	0.107105	-0.952013	0.286705	-0.148616	0.269794	0.951380	-0.983078	-0.144507	-0.112588
137	2975111861													-9.648873	-1.459407	-1.223889	0.107719	-0.951948	0.286692	-0.148557	0.269720	0.951411	-0.983020	-0.145075	-0.112364
138	2975120194													-9.671182	-1.468379	-1.288808	0.108377	-0.951926	0.286515	-0.148660	0.269453	0.951470	-0.982932	-0.145710	-0.112311
139	2975128527													-9.679298	-1.461423	-1.230318	0.109044	-0.951796	0.286693	-0.148574	0.269568	0.951451	-0.982871	-0.146345	-0.112017
140	2975136860													-9.731085	-1.429511	-1.225350	0.109744	-0.951712	0.286708	-0.148624	0.269495	0.951464	-0.982785	-0.147029	-0.111872
141	2975145193													-9.721729	-1.396446	-1.237634	0.110453	-0.951572	0.286899	-0.148421	0.269636	0.951455	-0.982737	-0.147673	-0.111451
142	2975153526													-9.699573	-1.383281	-1.215096	0.111171	-0.951489	0.286897	-0.148400	0.269556	0.951481	-0.982659	-0.148352	-0.111234
143	2975161859													-9.665855	-1.408038	-1.216835	0.111885	-0.951338	0.287118	-0.148198	0.269727	0.951465	-0.982608	-0.149005	-0.110808
144	2975170192													-9.647521	-1.413021	-1.197618	0.112573	-0.951201	0.287305	-0.148138	0.269846	0.951440	-0.982539	-0.149667	-0.110531
145	2975178525													-9.585237	-1.368549	-1.194570	0.113253	-0.951013	0.287660	-0.147943	0.270154	0.951383	-0.982490	-0.150304	-0.110100
146	2975186858													-9.593624	-1.298205	-1.116264	0.113926	-0.950909	0.287739	-0.147928	0.270160	0.951384	-0.982415	-0.150952	-0.109887
147	2975195191													-9.648331	-1.286096	-1.086049	0.114635	-0.950799	0.287820	-0.147751	0.270189	0.951403	-0.982359	-0.151589	-0.109509
148	2975203524													-9.685410	-1.361014	-1.166164	0.115331	-0.950806	0.287517	-0.147659	0.269823	0.951521	-0.982291	-0.152195	-0.109276
149	2975211857													-9.687804	-1.455205	-1.209549	0.116022	-0.950762	0.287384	-0.147435	0.269648	0.951605	-0.982243	-0.152778	-0.108891
150	2975220190													-9.732927	-1.490512	-1.153546	0.116728	-0.950797	0.286984	-0.147380	0.269177	0.951747	-0.982168	-0.153391	-0.108708
151	2975228523													-9.783742	-1.536857	-1.120940	0.117509	-0.950714	0.286941	-0.147148	0.269084	0.951809	-0.982110	-0.154069	-0.108276
152	2975236856													-9.730577	-1.514509	-1.164428	0.118286	-0.950617	0.286943	-0.147072	0.269012	0.951842	-0.982028	-0.154791	-0.107989
153	2975245189													-9.625363	-1.469254	-1.079274	0.119108	-0.950456	0.287134	-0.146819	0.269153	0.951841	-0.981966	-0.155529	-0.107487
154	2975253522													-9.558349	-1.399526	-1.078387	0.119924	-0.950333	0.287204	-0.146763	0.269143	0.951852	-0.981875	-0.156301	-0.107197
155	2975261855													-9.664907	-1.400981	-1.028433	0.120749	-0.950158	0.287435	-0.146670	0.269299	0.951823	-0.981788	-0.157089	-0.106842
156	2975270188													-9.592626	-1.452398	-0.992592	0.121493	-0.950064	0.287433	-0.146776	0.269199	0.951834	-0.981680	-0.157829	-0.106741
157	2975278521													-9.486150	-1.529879	-1.051206	0.122215	-0.949947	0.287514	-0.146837	0.269192	0.951827	-0.981582	-0.158546	-0.106588
158	2975286854													-9.632730	-1.534306	-0.981185	0.122887	-0.949856	0.287529	-0.147058	0.269098	0.951820	-0.981465	-0.159250	-0.106615
159	2975295187													-9.642628	-1.476099	-0.906508	0.123576	-0.949731	0.287644	-0.147141	0.269125	0.951799	-0.981366	-0.159944	-0.106487
160	2975303520													-9.591498	-1.468433	-0.984400	0.124216	-0.949635	0.287688	-0.147440	0.269050	0.951774	-0.981240	-0.160642	-0.106594
161	2975311853													-9.516338	-1.430532	-1.067210	0.124895	-0.949496	0.287851	-0.147705	0.269096	0.951720	-0.981114	-0.161383	-0.106637
162	2975320186													-9.480837	-1.311684	-1.041952	0.125545	-0.949385	0.287936	-0.148203	0.269028	0.951662	-0.980956	-0.162149	-0.106926
163	2975328519													-9.579041	-1.236053	-0.883828	0.126256	-0.949231	0.288132	-0.148610	0.269079	0.951584	-0.980803	-0.162963	-0.107092
164	2975336852													-9.539272	-1.286910	-0.988421	0.126972	-0.949196	0.287934	-0.149132	0.268716	0.951605	-0.980631	-0.163767	-0.107436
165	2975345185													-9.521784	-1.409360	-1.087572	0.127687	-0.949192	0.287629	-0.149605	0.268252	0.951661	-0.980466	-0.164546	-0.107752
166	2975353518													-9.595942	-1.524785	-1.039695	0.128335	-0.949278	0.287058	-0.150170	0.267513	0.951780	-0.980295	-0.165254	-0.108222
167	2975361851													-9.638257	-1.553825	-1.053841	0.128998	-0.949264	0.286807	-0.150587	0.267117	0.951826	-0.980144	-0.165973	-0.108490
168	2975370184													-9.688615	-1.548365	-1.003957	0.129568	-0.949198	0.286767	-0.151016	0.266942	0.951807	-0.980003	-0.166630	-0.108757
169	2975378517													-9.658630	-1.512622	-0.955166	0.130178	-0.949119	0.286751	-0.151270	0.266814	0.951802	-0.979883	-0.167280	-0.108840
170	2975386850													-9.647062	-1.608088	-0.904881	0.130693	-0.949018	0.286851	-0.151624	0.266797	0.951751	-0.979760	-0.167880	-0.109026
171	2975395183													-9.689015	-1.671205	-0.857664	0.131238	-0.948866	0.287105	-0.151935	0.266937	0.951662	-0.979639	-0.168516	-0.109133
172	2975403516													-9.697722	-1.681349	-0.737003	0.131674	-0.948721	0.287385	-0.152252	0.267114	0.951561	-0.979531	-0.169051	-0.109273
173	2975411849													-9.671062	-1.609589	-0.786105	0.132141	-0.948569	0.287673	-0.152506	0.267307	0.951467	-0.979429	-0.169600	-0.109340
174	2975420182													-9.682452	-1.547099	-0.792847	0.132536	-0.948431	0.287947	-0.152856	0.267477	0.951363	-0.979321	-0.170104	-0.109523
175	2975428515													-9.722114	-1.485575	-0.818109	0.133010	-0.948363	0.287953	-0.153066	0.267393	0.951353	-0.979224	-0.170615	-0.109596
176	2975436848													-9.748659	-1.475131	-0.949461	0.133405	-0.948350	0.287810	-0.153293	0.267166	0.951380	-0.979134	-0.171038	-0.109735
177	2975445181													-9.733874	-1.476894	-1.005792	0.133844	-0.948345	0.287625	-0.153411	0.266910	0.951433	-0.979056	-0.171468	-0.109762
178	2975453514													-9.683668	-1.462739	-1.039852	0.134166	-0.948381	0.287356	-0.153501	0.266588	0.951508	-0.978998	-0.171770	-0.109810
179	2975461847													-9.573994	-1.596619	-1.172608	0.134513	-0.948415	0.287082	-0.153538	0.266268	0.951592	-0.978945	-0.172079	-0.109801
180	2975470180													-9.486195	-1.775939	-1.298804	0.134802	-0.948482	0.286724	-0.153683	0.265850	0.951685	-0.978882	-0.172353	-0.109928
181	2975478513													-9.536833	-1.850350	-1.354399	0.135124	-0.948494	0.286532	-0.153831	0.265595	0.951733	-0.978814	-0.172679	-0.110019
182	2975486846													-9.563483	-1.766382	-1.318584	0.135374	-0.948441	0.286591	-0.153976	0.265601	0.951708	-0.978757	-0.172965	-0.110081
183	2975495179													-9.568360	-1.740049	-1.209577	0.135707	-0.948285	0.286950	-0.154051	0.265910	0.951609	-0.978699	-0.173345	-0.109998
184	2975503512													-9.582225	-1.657177	-1.149973	0.135979	-0.948118	0.287372	-0.154168	0.266282	0.951486	-0.978643	-0.173686	-0.109960
185	2975511845													-9.525990	-1.564265	-1.166898	0.136318	-0.947942	0.287791	-0.154143	0.266669	0.951382	-0.978600	-0.174052	-0.109767
186	2975520178													-9.542713	-1.496974	-1.246394	0.136585	-0.947824	0.288052	-0.154223	0.266887	0.951308	-0.978550	-0.174359	-0.109723
187	2975528511													-9.640202	-1.488828	-1.215691	0.136943	-0.947784	0.288013	-0.154248	0.266803	0.951327	-0.978496	-0.174703	-0.109657
188	2975536844													-9.605377	-1.534443	-1.276991	0.137212	-0.947834	0.287722	-0.154334	0.266465	0.951408	-0.978445	-0.174949	-0.109721
189	2975545177													-9.557712	-1.591812	-1.299134	0.137565	-0.947925	0.287251	-0.154325	0.265954	0.951553	-0.978397	-0.175230	-0.109702
190	2975553510													-9.544043	-1.632663	-1.267514	0.137850	-0.948036	0.286749	-0.154286	0.265425	0.951707	-0.978363	-0.175434	-0.109680
191	2975561843													-9.581005	-1.664220	-1.271250	0.138209	-0.948117	0.286309	-0.154153	0.264967	0.951856	-0.978333	-0.175690	-0.109534
192	2975570176													-9.621781	-1.739864	-1.267300	0.138445	-0.948207	0.285895	-0.154063	0.264541	0.951989	-0.978314	-0.175844	-0.109459
193	2975578509													-9.571333	-1.749480	-1.326255	0.138739	-0.948264	0.285564	-0.153921	0.264201	0.952106	-0.978294	-0.176048	-0.109303
194	2975586842													-9.526886	-1.759886	-1.348513	0.138891	-0.948275	0.285453	-0.153909	0.264074	0.952143	-0.978275	-0.176178	-0.109271
195	2975595175													-9.509198	-1.700861	-1.310837	0.139136	-0.948280	0.285319	-0.153779	0.263936	0.952203	-0.978260	-0.176361	-0.109102
196	2975603508													-9.561570	-1.719758	-1.194282	0.139276	-0.948299	0.285186	-0.153742	0.263794	0.952248	-0.978246	-0.176471	-0.109053
197	2975611841													-9.587320	-1.678751	-1.131000	0.139460	-0.948289	0.285129	-0.153618	0.263738	0.952283	-0.978240	-0.176606	-0.108894
198	2975620174													-9.541542	-1.573540	-1.126573	0.139523	-0.948278	0.285136	-0.153548	0.263750	0.952291	-0.978241	-0.176649	-0.108807
199	2975628507													-9.548644	-1.568326	-1.159665	0.139667	-0.948314	0.284944	-0.153409	0.263567	0.952364	-0.978243	-0.176727	-0.108668
200	2975636840													-9.584451	-1.670739	-1.186097	0.139736	-0.948468	0.284399	-0.153394	0.263015	0.952520	-0.978235	-0.176726	-0.108737
201	2975645173													-9.660449	-1.814040	-1.207379	0.139870	-0.948588	0.283933	-0.153268	0.262554	0.952667	-0.978236	-0.176767	-0.108664
202	2975653506													-9.584727	-1.867172	-1.226578	0.139899	-0.948725	0.283460	-0.153203	0.262088	0.952806	-0.978242	-0.176723	-0.108682
203	2975661839													-9.561893	-1.872319	-1.215949	0.139987	-0.948819	0.283100	-0.153051	0.261744	0.952925	-0.978253	-0.176726	-0.108577
204	2975670172													-9.554255	-1.962057	-1.254514	0.139968	-0.948898	0.282844	-0.153043	0.261491	0.952995	-0.978257	-0.176676	-0.108622
205	2975678505													-9.585387	-1.950922	-1.227252	0.140068	-0.948932	0.282681	-0.152958	0.261331	0.953053	-0.978256	-0.176731	-0.108542
206	2975686838													-9.493532	-1.916383	-1.247692	0.140076	-0.948931	0.282681	-0.152946	0.261333	0.953054	-0.978257	-0.176735	-0.108529
207	2975695171													-9.438047	-1.862464	-1.267677	0.140178	-0.948947	0.282576	-0.152865	0.261230	0.953095	-0.978255	-0.176799	-0.108442
208	2975703504													-9.474992	-1.902699	-1.306903	0.140258	-0.948948	0.282534	-0.152885	0.261175	0.953107	-0.978240	-0.176876	-0.108448
209	2975711837													-9.437454	-1.842365	-1.259651	0.140467	-0.948931	0.282488	-0.152833	0.261115	0.953132	-0.978218	-0.177057	-0.108350
210	2975720170													-9.381819	-1.839554	-1.254914	0.140652	-0.948918	0.282438	-0.152908	0.261031	0.953143	-0.978180	-0.177248	-0.108383
211	2975728503													-9.375407	-1.908749	-1.268440	0.140918	-0.948911	0.282331	-0.152982	0.260881	0.953173	-0.978130	-0.177510	-0.108403
212	2975736836													-9.494883	-1.989468	-1.327413	0.141103	-0.948870	0.282375	-0.153259	0.260854	0.953135	-0.978060	-0.177767	-0.108616
213	2975745169													-9.519650	-1.951941	-1.321772	0.141441	-0.948843	0.282296	-0.153420	0.260708	0.953149	-0.977986	-0.178125	-0.108697
214	2975753502													-9.498655	-1.940117	-1.194245	0.141739	-0.948755	0.282442	-0.153779	0.260755	0.953079	-0.977887	-0.178522	-0.108939
215	2975761835													-9.412692	-1.911143	-1.198345	0.142153	-0.948718	0.282359	-0.154016	0.260582	0.953088	-0.977789	-0.178972	-0.109075
216	2975770168													-9.373544	-1.890192	-1.205180	0.142541	-0.948661	0.282356	-0.154369	0.260471	0.953061	-0.977677	-0.179438	-0.109316
217	2975778501													-9.391997	-1.935105	-1.214586	0.142948	-0.948624	0.282273	-0.154644	0.260291	0.953065	-0.977574	-0.179890	-0.109491
218	2975786834													-9.442790	-1.931437	-1.291716	0.143324	-0.948631	0.282061	-0.155121	0.259948	0.953082	-0.977444	-0.180353	-0.109895
219	2975795167													-9.474187	-1.909531	-1.352547	0.143723	-0.948662	0.281751	-0.155530	0.259515	0.953133	-0.977320	-0.180808	-0.110247
220	2975803500													-9.447205	-1.881647	-1.354841	0.144125	-0.948733	0.281308	-0.156117	0.258916	0.953200	-0.977167	-0.181297	-0.110797
221	2975811833													-9.430315	-1.845902	-1.353593	0.144600	-0.948797	0.280848	-0.156648	0.258301	0.953280	-0.977012	-0.181838	-0.111277
222	2975820166													-9.401541	-1.852244	-1.248138	0.145104	-0.948843	0.280433	-0.157395	0.257687	0.953323	-0.976817	-0.182469	-0.111952
223	2975828499													-9.350639	-1.909537	-1.257975	0.145704	-0.948922	0.279854	-0.157987	0.256926	0.953430	-0.976632	-0.183132	-0.112482
224	2975836832													-9.320526	-1.934399	-1.238703	0.146297	-0.948978	0.279351	-0.158757	0.256207	0.953496	-0.976419	-0.183842	-0.113175
225	2975845165													-9.413095	-1.931175	-1.232983	0.146929	-0.949031	0.278839	-0.159486	0.255481	0.953569	-0.976205	-0.184578	-0.113820
226	2975853498													-9.520887	-1.991949	-1.257508	0.147517	-0.949094	0.278315	-0.160412	0.254709	0.953620	-0.975964	-0.185320	-0.114673
227	2975861831													-9.568976	-2.021126	-1.337294	0.148148	-0.949171	0.277717	-0.161200	0.253884	0.953707	-0.975739	-0.186058	-0.115393
228	2975870164													-9.554829	-2.021117	-1.315720	0.148689	-0.949199	0.277332	-0.162184	0.253244	0.953711	-0.975494	-0.186785	-0.116290
229	2975878497													-9.574715	-2.030882	-1.262715	0.149274	-0.949225	0.276928	-0.163029	0.252607	0.953736	-0.975263	-0.187515	-0.117044
230	2975886830													-9.546723	-1.978890	-1.215759	0.149849	-0.949254	0.276518	-0.163948	0.251947	0.953752	-0.975021	-0.188254	-0.117874
231	2975895163													-9.567334	-2.023294	-1.250372	0.150380	-0.949302	0.276064	-0.164743	0.251273	0.953793	-0.974805	-0.188911	-0.118604
232	2975903496													-9.586126	-2.035163	-1.280753	0.150880	-0.949357	0.275601	-0.165678	0.250564	0.953818	-0.974570	-0.189573	-0.119483
233	2975911829													-9.584487	-2.025620	-1.294590	0.151367	-0.949461	0.274978	-0.166454	0.249727	0.953902	-0.974362	-0.190160	-0.120241
234	2975920162													-9.556578	-2.006567	-1.355269	0.151815	-0.949578	0.274325	-0.167396	0.248832	0.953971	-0.974131	-0.190748	-0.121179
235	2975928495													-9.563938	-1.969777	-1.243881	0.152295	-0.949691	0.273668	-0.168122	0.247968	0.954068	-0.973931	-0.191310	-0.121900
236	2975936828													-9.506832	-1.893269	-1.224861	0.152717	-0.949765	0.273176	-0.169043	0.247240	0.954095	-0.973705	-0.191884	-0.122793
237	2975945161													-9.417126	-1.912996	-1.273510	0.153092	-0.949927	0.272398	-0.169811	0.246259	0.954212	-0.973513	-0.192339	-0.123608
238	2975953494													-9.445447	-2.080509	-1.232520	0.153355	-0.950103	0.271637	-0.170805	0.245265	0.954291	-0.973297	-0.192742	-0.124670
239	2975961827													-9.518636	-2.055799	-1.248018	0.153592	-0.950301	0.270810	-0.171635	0.244240	0.954405	-0.973114	-0.193069	-0.125591
240	2975970160													-9.577730	-1.929598	-1.220741	0.153737	-0.950495	0.270046	-0.172650	0.243251	0.954474	-0.972912	-0.193361	-0.126706
241	2975978493													-9.597198	-2.055517	-1.174669	0.153814	-0.950773	0.269021	-0.173425	0.242058	0.954637	-0.972762	-0.193491	-0.127655
242	2975986826													-9.614602	-2.152481	-1.363068	0.153828	-0.951097	0.267864	-0.174276	0.240725	0.954819	-0.972607	-0.193560	-0.128723
243	2975995159													-9.645322	-2.119784	-1.407043	0.153811	-0.951420	0.266726	-0.175021	0.239437	0.955006	-0.972476	-0.193573	-0.129691
244	2976003492													-9.683172	-2.157383	-1.290064	0.153785	-0.951709	0.265708	-0.175854	0.238253	0.955150	-0.972330	-0.193613	-0.130722
245	2976011825													-9.616362	-2.118803	-1.317867	0.153781	-0.951946	0.264860	-0.176517	0.237270	0.955272	-0.972211	-0.193655	-0.131547
246	2976020158													-9.571602	-1.984767	-1.325099	0.153861	-0.952123	0.264176	-0.177224	0.236432	0.955349	-0.972069	-0.193809	-0.132362
247	2976028491													-9.446667	-1.836954	-1.268412	0.153945	-0.952335	0.263361	-0.177711	0.235506	0.955487	-0.971967	-0.193894	-0.132985
248	2976036824													-9.405663	-1.780757	-1.375979	0.153993	-0.952617	0.262312	-0.178293	0.234330	0.955668	-0.971853	-0.193934	-0.133759
249	2976045157													-9.421183	-1.760164	-1.462729	0.153941	-0.952954	0.261115	-0.178723	0.233051	0.955900	-0.971782	-0.193820	-0.134438
250	2976053490													-9.480563	-1.811497	-1.461724	0.153803	-0.953314	0.259878	-0.179209	0.231733	0.956130	-0.971714	-0.193628	-0.135201
251	2976061823													-9.534712	-1.970564	-1.502765	0.153569	-0.953711	0.258558	-0.179571	0.230370	0.956391	-0.971685	-0.193301	-0.135881
252	2976070156													-9.598590	-1.917627	-1.333195	0.153335	-0.954148	0.257079	-0.179926	0.228849	0.956689	-0.971656	-0.192949	-0.136586
253	2976078489													-9.583578	-1.844006	-1.307416	0.153008	-0.954598	0.255599	-0.180213	0.227354	0.956992	-0.971654	-0.192490	-0.137244
254	2976086822													-9.595994	-1.957079	-1.344859	0.152669	-0.955089	0.253964	-0.180617	0.225684	0.957311	-0.971632	-0.192022	-0.138050
255	2976095155													-9.629107	-2.020236	-1.320337	0.152317	-0.955587	0.252294	-0.180940	0.223997	0.957646	-0.971628	-0.191516	-0.138786
256	2976103488													-9.666102	-2.158196	-1.295296	0.151936	-0.956087	0.250627	-0.181268	0.222316	0.957976	-0.971626	-0.190982	-0.139530
257	2976111821													-9.643736	-2.206676	-1.398952	0.151475	-0.956571	0.249053	-0.181275	0.220804	0.958324	-0.971697	-0.190309	-0.139956
258	2976120154													-9.608912	-2.247952	-1.311341	0.150917	-0.956961	0.247890	-0.181252	0.219724	0.958577	-0.971788	-0.189596	-0.140291
259	2976128487													-9.555790	-2.160517	-1.338132	0.150256	-0.957233	0.247243	-0.181145	0.219192	0.958718	-0.971910	-0.188840	-0.140463
260	2976136820													-9.553508	-2.014443	-1.320862	0.149602	-0.957390	0.247031	-0.181142	0.219075	0.958746	-0.972012	-0.188178	-0.140650
261	2976145153													-9.575477	-1.859384	-1.404634	0.148933	-0.957438	0.247250	-0.180983	0.219422	0.958697	-0.972144	-0.187529	-0.140601
262	2976153486													-9.464943	-1.782802	-1.455580	0.148281	-0.957422	0.247703	-0.181094	0.219949	0.958555	-0.972223	-0.186993	-0.140770
263	2976161819													-9.408187	-1.623875	-1.453447	0.147539	-0.957324	0.248521	-0.181348	0.220827	0.958305	-0.972289	-0.186456	-0.141029
264	2976170152													-9.430535	-1.515156	-1.386816	0.146777	-0.957204	0.249432	-0.181774	0.221768	0.958007	-0.972324	-0.185954	-0.141444
265	2976178485													-9.535403	-1.417024	-1.357800	0.145918	-0.957056	0.250501	-0.182071	0.222907	0.957686	-0.972398	-0.185353	-0.141726
266	2976186818													-9.559117	-1.321631	-1.532146	0.144979	-0.956927	0.251538	-0.182535	0.223993	0.957344	-0.972452	-0.184709	-0.142199
267	2976195151													-9.602392	-1.385828	-1.452621	0.143880	-0.956814	0.252599	-0.183064	0.225115	0.956980	-0.972515	-0.183932	-0.142769
268	2976203484													-9.712842	-1.493647	-1.479670	0.142681	-0.956810	0.253293	-0.183818	0.225843	0.956664	-0.972550	-0.183057	-0.143656
269	2976211817													-9.887075	-1.549306	-1.286994	0.141427	-0.956791	0.254066	-0.184339	0.226704	0.956360	-0.972634	-0.182090	-0.144312
270	2976220150													-9.827763	-1.581281	-1.328771	0.140153	-0.956792	0.254769	-0.184753	0.227518	0.956087	-0.972740	-0.181068	-0.144883
271	2976228483													-9.842818	-1.577734	-1.329157	0.138751	-0.956737	0.255739	-0.185006	0.228649	0.955768	-0.972893	-0.179927	-0.145276
272	2976236816													-9.888306	-1.543892	-1.328770	0.137392	-0.956712	0.256564	-0.185178	0.229645	0.955496	-0.973053	-0.178787	-0.145611
273	2976245149													-9.831247	-1.435728	-1.179732	0.136019	-0.956601	0.257706	-0.185143	0.230997	0.955177	-0.973253	-0.177635	-0.145688
274	2976253482													-9.723758	-1.317656	-1.327306	0.134721	-0.956520	0.258688	-0.185082	0.232183	0.954901	-0.973445	-0.176524	-0.145755
275	2976261815													-9.685324	-1.148236	-1.277022	0.133482	-0.956421	0.259693	-0.184920	0.233400	0.954636	-0.973646	-0.175449	-0.145707
276	2976270148													-9.628497	-1.092608	-1.270340	0.132315	-0.956414	0.260318	-0.184821	0.234216	0.954455	-0.973824	-0.174401	-0.145775
277	2976278481													-9.604774	-1.158282	-1.353782	0.131227	-0.956417	0.260857	-0.184680	0.234941	0.954304	-0.973998	-0.173405	-0.145800
278	2976286814													-9.599716	-1.102716	-1.523068	0.130253	-0.956490	0.261078	-0.184623	0.235317	0.954222	-0.974140	-0.172491	-0.145939
279	2976295147													-9.454618	-1.121269	-1.612503	0.129391	-0.956530	0.261360	-0.184588	0.235734	0.954126	-0.974261	-0.171699	-0.146062
280	2976303480													-9.455613	-1.190330	-1.829658	0.128638	-0.956691	0.261143	-0.184630	0.235622	0.954146	-0.974353	-0.170954	-0.146324
281	2976311813													-9.464757	-1.317859	-1.923592	0.127930	-0.956857	0.260879	-0.184590	0.235473	0.954190	-0.974454	-0.170225	-0.146503
282	2976320146													-9.419611	-1.486632	-1.939526	0.127164	-0.957094	0.260387	-0.184623	0.235091	0.954278	-0.974548	-0.169423	-0.146806
283	2976328479													-9.508148	-1.625607	-1.928458	0.126365	-0.957260	0.260163	-0.184599	0.234992	0.954307	-0.974656	-0.168617	-0.147015
284	2976336812													-9.497617	-1.686720	-1.920527	0.125479	-0.957441	0.259926	-0.184565	0.234895	0.954337	-0.974777	-0.167722	-0.147236
285	2976345145													-9.479142	-1.737770	-1.819615	0.124545	-0.957528	0.260055	-0.184404	0.235192	0.954296	-0.974928	-0.166808	-0.147280
286	2976353478													-9.526197	-1.676138	-1.685980	0.123541	-0.957677	0.259987	-0.184263	0.235299	0.954296	-0.975082	-0.165801	-0.147395
287	2976361811													-9.533120	-1.691216	-1.681046	0.122597	-0.957816	0.259920	-0.184041	0.235412	0.954311	-0.975243	-0.164832	-0.147417
288	2976370144													-9.524932	-1.833901	-1.756345	0.121637	-0.958033	0.259572	-0.183912	0.235231	0.954381	-0.975387	-0.163827	-0.147581
289	2976378477													-9.521386	-1.916704	-1.673367	0.120764	-0.958185	0.259419	-0.183773	0.235235	0.954407	-0.975522	-0.162932	-0.147680
290	2976386810													-9.630572	-1.724278	-1.414876	0.119917	-0.958339	0.259241	-0.183648	0.235206	0.954438	-0.975650	-0.162062	-0.147792
291	2976395143													-9.549505	-1.394235	-1.335889	0.119059	-0.958379	0.259490	-0.183467	0.235613	0.954372	-0.975789	-0.161234	-0.147779
292	2976403476													-9.517429	-1.231588	-1.396642	0.118191	-0.958459	0.259589	-0.183475	0.235841	0.954314	-0.975893	-0.160420	-0.147979
293	2976411809													-9.539866	-1.296988	-1.491868	0.117368	-0.958530	0.259701	-0.183452	0.236081	0.954259	-0.975997	-0.159643	-0.148136
294	2976420142													-9.469887	-1.504774	-1.601441	0.116488	-0.958712	0.259426	-0.183575	0.235920	0.954276	-0.976079	-0.158785	-0.148513
295	2976428475													-9.494169	-1.701616	-1.839013	0.115567	-0.958859	0.259295	-0.183715	0.235907	0.954252	-0.976162	-0.157917	-0.148894
296	2976436808													-9.525202	-1.708250	-1.894765	0.114562	-0.959074	0.258945	-0.183859	0.235688	0.954278	-0.976254	-0.156934	-0.149334
297	2976445141													-9.530385	-1.722733	-1.931699	0.113446	-0.959256	0.258761	-0.183825	0.235681	0.954287	-0.976391	-0.155827	-0.149598
298	2976453474													-9.486524	-1.837846	-2.007565	0.112123	-0.959593	0.258087	-0.183818	0.235213	0.954403	-0.976545	-0.154451	-0.150018
299	2976461807													-9.524063	-1.949841	-2.074767	0.110677	-0.959892	0.257601	-0.183665	0.234975	0.954492	-0.976738	-0.152953	-0.150292
300	2976470140													-9.641176	-1.981277	-1.892043	0.109094	-0.960210	0.257089	-0.183502	0.234734	0.954582	-0.976947	-0.151316	-0.150593
301	2976478473													-9.673798	-1.871335	-1.785658	0.107445	-0.960466	0.256830	-0.183116	0.234788	0.954643	-0.977202	-0.149601	-0.150650
302	2976486806													-9.620012	-1.810936	-1.730165	0.105703	-0.960794	0.256323	-0.182760	0.234605	0.954756	-0.977459	-0.147766	-0.150796
303	2976495139													-9.620283	-1.757927	-1.597769	0.103849	-0.961109	0.255902	-0.182301	0.234540	0.954860	-0.977743	-0.145812	-0.150854
304	2976503472													-9.619594	-1.814440	-1.409659	0.101922	-0.961470	0.255318	-0.181778	0.234333	0.955010	-0.978043	-0.143747	-0.150890
305	2976511805													-9.626296	-1.903513	-1.509489	0.099886	-0.961763	0.255020	-0.181068	0.234452	0.955116	-0.978385	-0.141579	-0.150726
306	2976520138													-9.712393	-1.716671	-1.344998	0.097863	-0.962052	0.254714	-0.180414	0.234551	0.955215	-0.978710	-0.139434	-0.150614
307	2976528471													-9.696582	-1.531050	-1.215152	0.095797	-0.962270	0.254677	-0.179657	0.234937	0.955263	-0.979054	-0.137266	-0.150372
308	2976536804													-9.678506	-1.514184	-1.490529	0.093673	-0.962605	0.254197	-0.178963	0.234881	0.955407	-0.979386	-0.134988	-0.150269
309	2976545137													-9.660436	-1.675678	-1.562345	0.091407	-0.962911	0.253864	-0.178164	0.235004	0.955526	-0.979746	-0.132571	-0.150075
310	2976553470													-9.756137	-1.884281	-1.592231	0.089109	-0.963250	0.253394	-0.177421	0.234987	0.955669	-0.980093	-0.130116	-0.149962
311	2976561803													-9.743721	-1.903892	-1.731240	0.086700	-0.963522	0.253195	-0.176457	0.235281	0.955775	-0.980483	-0.127544	-0.149621
312	2976570136													-9.627850	-1.879490	-1.790327	0.084125	-0.963835	0.252872	-0.175499	0.235474	0.955904	-0.980879	-0.124794	-0.149343
313	2976578469													-9.562244	-1.964014	-1.667601	0.081318	-0.964036	0.253028	-0.174381	0.236191	0.955931	-0.981315	-0.121858	-0.148903
314	2976586802													-9.687025	-2.015090	-1.712356	0.078468	-0.964243	0.253138	-0.173305	0.236861	0.955962	-0.981737	-0.118882	-0.148522
315	2976595135													-9.761072	-1.802644	-1.675996	0.075532	-0.964299	0.253815	-0.171860	0.238144	0.955904	-0.982221	-0.115822	-0.147737
316	2976603468													-9.724382	-1.509564	-1.494025	0.072584	-0.964378	0.254376	-0.170504	0.239296	0.955859	-0.982680	-0.112752	-0.147062
317	2976611801													-9.652604	-1.093370	-1.392921	0.069494	-0.964383	0.255216	-0.169034	0.240752	0.955754	-0.983157	-0.109559	-0.146283
318	2976620134													-9.639196	-0.890724	-1.560605	0.066438	-0.964496	0.255605	-0.167701	0.241734	0.955741	-0.983597	-0.106363	-0.145687
319	2976628467													-9.557668	-0.883000	-1.457982	0.063305	-0.964688	0.255674	-0.166332	0.242406	0.955810	-0.984036	-0.103034	-0.145113
320	2976636800													-9.603253	-0.987708	-1.546539	0.060267	-0.964980	0.255306	-0.164848	0.242637	0.956009	-0.984476	-0.099702	-0.144452
321	2976645133													-9.560241	-1.195404	-1.566144	0.057062	-0.965209	0.255179	-0.163295	0.243130	0.956150	-0.984926	-0.096229	-0.143740
322	2976653466													-9.593308	-1.196453	-1.557587	0.053958	-0.965458	0.254911	-0.161836	0.243452	0.956316	-0.985341	-0.092854	-0.143110
323	2976661799													-9.699287	-1.082272	-1.613155	0.050797	-0.965571	0.255134	-0.160221	0.244276	0.956378	-0.985773	-0.089459	-0.142296
324	2976670132													-9.709670	-1.007109	-1.549998	0.047658	-0.965754	0.255045	-0.158722	0.244768	0.956502	-0.986172	-0.086067	-0.141622
325	2976678465													-9.688121	-1.025960	-1.711928	0.044432	-0.965867	0.255201	-0.157091	0.245520	0.956578	-0.986584	-0.082592	-0.140820
326	2976686798													-9.594508	-0.991228	-1.551774	0.041267	-0.966041	0.255071	-0.155669	0.245955	0.956699	-0.986947	-0.079187	-0.140233
327	2976695131													-9.588652	-0.918511	-1.513665	0.038005	-0.966143	0.255194	-0.154199	0.246650	0.956758	-0.987309	-0.075713	-0.139604
328	2976703464													-9.571146	-0.791145	-1.444402	0.034795	-0.966237	0.255295	-0.152750	0.247307	0.956821	-0.987652	-0.072288	-0.138987
329	2976711797													-9.472845	-0.677733	-1.428474	0.031524	-0.966264	0.255619	-0.151270	0.248188	0.956828	-0.987990	-0.068831	-0.138342
330	2976720130													-9.580031	-0.608469	-1.279575	0.028388	-0.966376	0.255562	-0.149975	0.248653	0.956911	-0.988282	-0.065493	-0.137873
331	2976728463													-9.594963	-0.546561	-1.300196	0.025232	-0.966436	0.255665	-0.148608	0.249278	0.956962	-0.988574	-0.062140	-0.137330
332	2976736796													-9.570616	-0.460679	-1.337374	0.022228	-0.966565	0.255458	-0.147405	0.249560	0.957075	-0.988826	-0.058929	-0.136929
333	2976745129													-9.550662	-0.442978	-1.446036	0.019239	-0.966648	0.255384	-0.146120	0.249970	0.957164	-0.989080	-0.055732	-0.136438
334	2976753462													-9.545863	-0.361992	-1.365610	0.016409	-0.966747	0.255209	-0.145102	0.250239	0.957249	-0.989281	-0.052739	-0.136171
335	2976761795													-9.594155	-0.208771	-1.212067	0.013600	-0.966730	0.255436	-0.143988	0.250904	0.957243	-0.989486	-0.049798	-0.135785
336	2976770128													-9.529801	-0.126915	-1.416126	0.010849	-0.966793	0.255331	-0.142984	0.251222	0.957310	-0.989666	-0.046894	-0.135510
337	2976778461													-9.534379	-0.279557	-1.523470	0.008132	-0.966821	0.255326	-0.142010	0.251630	0.957348	-0.989832	-0.044044	-0.135252
338	2976786794													-9.618010	-0.355086	-1.421186	0.005597	-0.966888	0.255140	-0.141183	0.251824	0.957419	-0.989968	-0.041380	-0.135099
339	2976795127													-9.643342	-0.303172	-1.333993	0.003070	-0.966829	0.255404	-0.140216	0.252466	0.957393	-0.990116	-0.038751	-0.134789
340	2976803460													-9.594478	-0.147225	-1.351332	0.000750	-0.966815	0.255476	-0.139271	0.252886	0.957420	-0.990254	-0.036298	-0.134459
341	2976811793													-9.590171	0.086965	-1.396934	-0.001560	-0.966686	0.255961	-0.138284	0.253710	0.957345	-0.990391	-0.033902	-0.134073
342	2976820126													-9.631124	0.204617	-1.400015	-0.003672	-0.966650	0.256075	-0.137472	0.254133	0.957349	-0.990499	-0.031687	-0.133820
343	2976828459													-9.535711	0.299478	-1.416396	-0.005762	-0.966595	0.256245	-0.136626	0.254608	0.957344	-0.990606	-0.029494	-0.133529
344	2976836792													-9.556826	0.397734	-1.407285	-0.007664	-0.966643	0.256014	-0.135983	0.254651	0.957424	-0.990682	-0.027476	-0.133399
345	2976845125													-9.524222	0.161342	-1.543177	-0.009596	-0.966643	0.255947	-0.135296	0.254860	0.957466	-0.990759	-0.025441	-0.133228
346	2976853458													-9.564792	-0.111091	-1.554137	-0.011411	-0.966695	0.255676	-0.134825	0.254845	0.957536	-0.990804	-0.023546	-0.133243
347	2976861791													-9.698652	-0.148011	-1.530048	-0.013108	-0.966635	0.255823	-0.134169	0.255231	0.957526	-0.990872	-0.021772	-0.133038
348	2976870124													-9.662405	-0.086658	-1.545786	-0.014698	-0.966588	0.255912	-0.133609	0.255543	0.957521	-0.990925	-0.020118	-0.132901
349	2976878457													-9.626683	-0.050170	-1.623550	-0.016201	-0.966457	0.256316	-0.132984	0.256155	0.957444	-0.990986	-0.018574	-0.132673
350	2976886790													-9.621292	0.145852	-1.529113	-0.017570	-0.966372	0.256548	-0.132497	0.256575	0.957399	-0.991028	-0.017171	-0.132550
351	2976895123													-9.567081	0.272270	-1.365194	-0.018812	-0.966245	0.256939	-0.131885	0.257137	0.957333	-0.991086	-0.015877	-0.132270
352	2976903456													-9.480271	0.435538	-1.544883	-0.019939	-0.966220	0.256947	-0.131445	0.257300	0.957350	-0.991123	-0.014686	-0.132136
353	2976911789													-9.486856	0.512722	-1.465290	-0.021029	-0.966158	0.257093	-0.131012	0.257596	0.957330	-0.991158	-0.013551	-0.131995
354	2976920122													-9.517307	0.450380	-1.393380	-0.021990	-0.966227	0.256754	-0.130797	0.257389	0.957415	-0.991165	-0.012529	-0.132039
355	2976928455													-9.626407	0.384558	-1.532081	-0.022847	-0.966248	0.256600	-0.130482	0.257354	0.957467	-0.991187	-0.011607	-0.131957
356	2976936788													-9.569444	0.283713	-1.478097	-0.023633	-0.966320	0.256257	-0.130289	0.257120	0.957556	-0.991194	-0.010758	-0.131977
357	2976945121													-9.580004	0.153445	-1.353291	-0.024260	-0.966336	0.256138	-0.130085	0.257087	0.957593	-0.991206	-0.010088	-0.131942
358	2976953454													-9.622920	0.107413	-1.380519	-0.024819	-0.966412	0.255795	-0.130003	0.256821	0.957676	-0.991203	-0.009486	-0.132010
359	2976961787													-9.677167	0.036234	-1.339984	-0.025283	-0.966435	0.255663	-0.129810	0.256753	0.957720	-0.991217	-0.008974	-0.131944
360	2976970120													-9.678011	0.078651	-1.322405	-0.025604	-0.966502	0.255379	-0.129796	0.256514	0.957786	-0.991210	-0.008624	-0.132016
361	2976978453													-9.650693	0.275549	-1.388967	-0.025791	-0.966501	0.255363	-0.129660	0.256524	0.957802	-0.991223	-0.008408	-0.131932
362	2976986786													-9.598865	0.262309	-1.352989	-0.025926	-0.966585	0.255032	-0.129732	0.256214	0.957875	-0.991210	-0.008252	-0.132040
363	2976995119													-9.584060	0.125843	-1.504095	-0.025921	-0.966689	0.254640	-0.129674	0.255824	0.957987	-0.991218	-0.008189	-0.131986
364	2977003452													-9.587257	0.079427	-1.540588	-0.025978	-0.966846	0.254037	-0.129894	0.255233	0.958115	-0.991188	-0.008108	-0.132217
365	2977011785													-9.613051	0.210367	-1.620804	-0.025972	-0.966940	0.253676	-0.130128	0.254873	0.958179	-0.991157	-0.008124	-0.132446
366	2977020118													-9.561507	0.256241	-1.560363	-0.026011	-0.967119	0.252990	-0.130626	0.254194	0.958291	-0.991090	-0.008121	-0.132942
367	2977028451													-9.592731	0.056689	-1.585839	-0.025952	-0.967240	0.252532	-0.130965	0.253730	0.958368	-0.991047	-0.008201	-0.133259
368	2977036784													-9.579884	-0.035479	-1.690860	-0.025949	-0.967393	0.251947	-0.131572	0.253144	0.958440	-0.990967	-0.008279	-0.133850
369	2977045117													-9.635175	-0.039403	-1.499796	-0.025910	-0.967375	0.252019	-0.131964	0.253207	0.958369	-0.990916	-0.008427	-0.134220
370	2977053450													-9.665301	0.065395	-1.491350	-0.025855	-0.967368	0.252053	-0.132499	0.253229	0.958290	-0.990846	-0.008620	-0.134723
371	2977061783													-9.717435	0.280444	-1.350520	-0.025666	-0.967320	0.252256	-0.132849	0.253402	0.958196	-0.990804	-0.008919	-0.135011
372	2977070116													-9.639845	0.256831	-1.415658	-0.025493	-0.967393	0.251995	-0.133128	0.253117	0.958232	-0.990771	-0.009119	-0.135240
373	2977078449													-9.548101	0.067477	-1.508596	-0.025275	-0.967456	0.251775	-0.133361	0.252867	0.958266	-0.990745	-0.009357	-0.135413
374	2977086782													-9.657965	-0.136753	-1.480453	-0.025074	-0.967612	0.251196	-0.133832	0.252262	0.958360	-0.990687	-0.009588	-0.135823
375	2977095115													-9.730844	-0.290166	-1.431416	-0.024827	-0.967734	0.250747	-0.134244	0.251780	0.958429	-0.990637	-0.009867	-0.136163
376	2977103448													-9.704613	-0.373377	-1.409117	-0.024615	-0.967917	0.250062	-0.134541	0.251069	0.958573	-0.990602	-0.010049	-0.136404
377	2977111781													-9.660097	-0.391055	-1.427237	-0.024355	-0.968006	0.249741	-0.134717	0.250715	0.958641	-0.990585	-0.010297	-0.136513
378	2977120114													-9.845819	-0.271674	-1.226787	-0.024069	-0.968168	0.249143	-0.134978	0.250081	0.958770	-0.990556	-0.010552	-0.136700
379	2977128447													-9.952541	-0.203755	-1.336151	-0.023836	-0.968306	0.248625	-0.134765	0.249538	0.958942	-0.990591	-0.010649	-0.136441
380	2977136780													-9.757565	-0.651616	-1.628888	-0.023920	-0.968582	0.247543	-0.134711	0.248478	0.959224	-0.990596	-0.010402	-0.136423
381	2977145113													-9.771770	-1.111624	-1.738977	-0.024049	-0.968811	0.246632	-0.134743	0.247593	0.959449	-0.990589	-0.010158	-0.136495
382	2977153446													-9.871258	-1.087079	-1.782882	-0.024330	-0.968917	0.246185	-0.135019	0.247186	0.959515	-0.990544	-0.009895	-0.136837
383	2977161779													-9.723316	-0.739723	-1.538351	-0.024686	-0.968800	0.246611	-0.134895	0.247659	0.959411	-0.990552	-0.009583	-0.136800
384	2977170112													-9.679172	-0.548834	-1.390826	-0.025110	-0.968696	0.246976	-0.134887	0.248077	0.959304	-0.990543	-0.009226	-0.136893
385	2977178445													-9.684593	-0.277790	-1.475833	-0.025571	-0.968504	0.247682	-0.134800	0.248840	0.959118	-0.990543	-0.008862	-0.136917
386	2977186778													-9.615766	-0.050655	-1.353701	-0.026078	-0.968405	0.248016	-0.134919	0.249240	0.958997	-0.990513	-0.008454	-0.137156
387	2977195111													-9.643006	-0.081639	-1.183172	-0.026620	-0.968306	0.248344	-0.134842	0.249640	0.958904	-0.990510	-0.007961	-0.137213
388	2977203444													-9.742850	-0.187136	-1.262308	-0.027155	-0.968342	0.248145	-0.134825	0.249517	0.958939	-0.990497	-0.007416	-0.137332
389	2977211777													-9.732742	-0.279995	-1.474579	-0.027756	-0.968328	0.248132	-0.134672	0.249587	0.958942	-0.990501	-0.006800	-0.137334
390	2977220110													-9.849893	-0.403869	-1.406229	-0.028318	-0.968445	0.247613	-0.134507	0.249151	0.959079	-0.990508	-0.006146	-0.137318
391	2977228443													-9.871577	-0.491806	-1.349471	-0.028990	-0.968479	0.247403	-0.134115	0.249038	0.959163	-0.990542	-0.005375	-0.137107
392	2977236776													-9.744426	-0.588530	-1.502694	-0.029691	-0.968538	0.247090	-0.133872	0.248825	0.959252	-0.990554	-0.004597	-0.137048
393	2977245109													-9.802309	-0.418481	-1.473639	-0.030359	-0.968529	0.247040	-0.133394	0.248869	0.959307	-0.990598	-0.003830	-0.136752
394	2977253442													-9.777349	-0.400686	-1.513471	-0.031162	-0.968593	0.246690	-0.133037	0.248633	0.959418	-0.990621	-0.002921	-0.136606
395	2977261775													-9.752364	-0.496868	-1.499659	-0.032045	-0.968589	0.246594	-0.132661	0.248659	0.959463	-0.990643	-0.001968	-0.136463
396	2977270108													-9.678761	-0.561690	-1.551075	-0.032994	-0.968636	0.246284	-0.132504	0.248482	0.959531	-0.990633	-0.000975	-0.136546
397	2977278441													-9.628275	-0.483939	-1.592281	-0.034072	-0.968562	0.246429	-0.132243	0.248774	0.959491	-0.990632	0.000103	-0.136562
398	2977286774													-9.713535	-0.388534	-1.487069	-0.035180	-0.968512	0.246468	-0.132105	0.248963	0.959461	-0.990611	0.001194	-0.136704
399	2977295107													-9.695826	-0.394525	-1.414622	-0.036355	-0.968410	0.246700	-0.131854	0.249354	0.959394	-0.990602	0.002350	-0.136754
400	2977303440													-9.692056	-0.390487	-1.485538	-0.037482	-0.968353	0.246753	-0.131683	0.249559	0.959364	-0.990583	0.003466	-0.136870
401	2977311773													-9.691385	-0.250427	-1.319796	-0.038619	-0.968207	0.247151	-0.131374	0.250108	0.959264	-0.990580	0.004577	-0.136856
402	2977320106													-9.733408	-0.116581	-1.234498	-0.039670	-0.968139	0.247249	-0.131079	0.250348	0.959241	-0.990578	0.005644	-0.136835
403	2977328439													-9.626245	0.036289	-1.461326	-0.040726	-0.968053	0.247416	-0.130794	0.250656	0.959200	-0.990573	0.006704	-0.136824
404	2977336772													-9.682674	0.082186	-1.530125	-0.041643	-0.968072	0.247189	-0.130742	0.250556	0.959233	-0.990542	0.007627	-0.137001
405	2977345105													-9.726190	0.065460	-1.549090	-0.042551	-0.968055	0.247100	-0.130447	0.250590	0.959264	-0.990542	0.008584	-0.136942
406	2977353438													-9.644173	0.153326	-1.649324	-0.043405	-0.968120	0.246698	-0.130313	0.250307	0.959356	-0.990522	0.009493	-0.137023
407	2977361771													-9.758820	0.107342	-1.771359	-0.044396	-0.968112	0.246554	-0.130005	0.250298	0.959401	-0.990519	0.010540	-0.136972
408	2977370104													-9.749106	-0.088051	-1.619824	-0.045452	-0.968114	0.246351	-0.129778	0.250239	0.959447	-0.990501	0.011638	-0.137013
409	2977378437													-9.674065	-0.187247	-1.666718	-0.046581	-0.968002	0.246580	-0.129378	0.250615	0.959403	-0.990501	0.012788	-0.136912
410	2977386770													-9.630367	0.027624	-1.606849	-0.047716	-0.967878	0.246852	-0.129146	0.251037	0.959324	-0.990477	0.013895	-0.136976
411	2977395103													-9.637007	0.265100	-1.575119	-0.048849	-0.967693	0.247354	-0.128819	0.251685	0.959198	-0.990464	0.014992	-0.136952
412	2977403436													-9.610353	0.355891	-1.571862	-0.049879	-0.967637	0.247367	-0.128667	0.251837	0.959178	-0.990433	0.016015	-0.137065
413	2977411769													-9.587214	0.402254	-1.586634	-0.050843	-0.967554	0.247496	-0.128299	0.252091	0.959161	-0.990431	0.017013	-0.136953
414	2977420102													-9.543969	0.371778	-1.528197	-0.051761	-0.967565	0.247263	-0.128132	0.251983	0.959212	-0.990405	0.017967	-0.137019
415	2977428435													-9.609716	0.296996	-1.466233	-0.052617	-0.967573	0.247052	-0.127923	0.251887	0.959265	-0.990387	0.018870	-0.137028
416	2977436768													-9.646748	0.283708	-1.397523	-0.053380	-0.967671	0.246501	-0.127803	0.251444	0.959397	-0.990362	0.019709	-0.137093
417	2977445101													-9.640928	0.341504	-1.494313	-0.054178	-0.967676	0.246309	-0.127523	0.251357	0.959457	-0.990355	0.020571	-0.137019
418	2977453434													-9.739648	0.258764	-1.541036	-0.054862	-0.967729	0.245948	-0.127407	0.251090	0.959542	-0.990332	0.021307	-0.137070
419	2977461767													-9.770004	0.248912	-1.476341	-0.055537	-0.967690	0.245951	-0.127088	0.251179	0.959561	-0.990335	0.022034	-0.136932
420	2977470100													-9.769540	0.306038	-1.327382	-0.056216	-0.967662	0.245907	-0.126783	0.251221	0.959591	-0.990336	0.022767	-0.136806
421	2977478433													-9.624615	0.277269	-1.381592	-0.056993	-0.967582	0.246042	-0.126410	0.251453	0.959579	-0.990340	0.023587	-0.136643
422	2977486766													-9.631226	0.289383	-1.440631	-0.057668	-0.967576	0.245908	-0.126251	0.251409	0.959612	-0.990321	0.024293	-0.136656
423	2977495099													-9.682152	0.334353	-1.443557	-0.058324	-0.967541	0.245890	-0.126051	0.251476	0.959620	-0.990308	0.024974	-0.136627
424	2977503432													-9.630374	0.368416	-1.422341	-0.058909	-0.967611	0.245475	-0.126021	0.251143	0.959711	-0.990277	0.025601	-0.136734
425	2977511765													-9.624615	0.376669	-1.456415	-0.059457	-0.967643	0.245219	-0.125877	0.250961	0.959778	-0.990263	0.026198	-0.136725
426	2977520098													-9.631085	0.289725	-1.548675	-0.059959	-0.967711	0.244829	-0.125922	0.250643	0.959855	-0.990227	0.026723	-0.136884
427	2977528431													-9.595684	0.312867	-1.587314	-0.060414	-0.967701	0.244755	-0.125810	0.250629	0.959873	-0.990213	0.027197	-0.136888
428	2977536764													-9.591340	0.433513	-1.631826	-0.060848	-0.967722	0.244566	-0.125816	0.250502	0.959906	-0.990186	0.027638	-0.136997
429	2977545097													-9.662710	0.504019	-1.649004	-0.061241	-0.967693	0.244583	-0.125653	0.250568	0.959910	-0.990182	0.028053	-0.136938
430	2977553430													-9.626358	0.500376	-1.689503	-0.061618	-0.967760	0.244221	-0.125574	0.250259	0.960001	-0.990169	0.028485	-0.136946
431	2977561763													-9.634423	0.451899	-1.689609	-0.062004	-0.967739	0.244206	-0.125225	0.250286	0.960039	-0.990189	0.028946	-0.136704
432	2977570096													-9.666002	0.413641	-1.663598	-0.062339	-0.967803	0.243869	-0.125017	0.249992	0.960143	-0.990194	0.029367	-0.136576
433	2977578429													-9.660166	0.419699	-1.722161	-0.062648	-0.967782	0.243870	-0.124693	0.250025	0.960177	-0.990216	0.029744	-0.136339
434	2977586762													-9.636571	0.367424	-1.600164	-0.062908	-0.967804	0.243716	-0.124499	0.249902	0.960234	-0.990224	0.030064	-0.136211
435	2977595095													-9.660667	0.315025	-1.432097	-0.063131	-0.967726	0.243967	-0.124154	0.250171	0.960208	-0.990253	0.030329	-0.135941
436	2977603428													-9.672653	0.325354	-1.447718	-0.063336	-0.967684	0.244081	-0.123997	0.250307	0.960193	-0.990259	0.030549	-0.135844
437	2977611761													-9.605103	0.353620	-1.396173	-0.063524	-0.967612	0.244319	-0.123776	0.250562	0.960155	-0.990275	0.030752	-0.135684
438	2977620094													-9.621808	0.286154	-1.297900	-0.063718	-0.967606	0.244291	-0.123716	0.250559	0.960164	-0.990270	0.030957	-0.135673
439	2977628427													-9.690493	0.120969	-1.358797	-0.063917	-0.967556	0.244436	-0.123565	0.250725	0.960140	-0.990276	0.031166	-0.135581
440	2977636760													-9.702345	0.152441	-1.322382	-0.064078	-0.967613	0.244170	-0.123574	0.250483	0.960202	-0.990264	0.031355	-0.135623
441	2977645093													-9.725177	0.270134	-1.441827	-0.064261	-0.967619	0.244096	-0.123500	0.250433	0.960224	-0.990262	0.031559	-0.135594
442	2977653426													-9.732379	0.406303	-1.500053	-0.064409	-0.967718	0.243666	-0.123541	0.250027	0.960325	-0.990247	0.031751	-0.135657
443	2977661759													-9.693850	0.447594	-1.472715	-0.064506	-0.967811	0.243269	-0.123533	0.249646	0.960425	-0.990242	0.031902	-0.135660
444	2977670092													-9.659341	0.436609	-1.514919	-0.064514	-0.967996	0.242531	-0.123607	0.248917	0.960605	-0.990232	0.031994	-0.135710
445	2977678425													-9.707368	0.375239	-1.545959	-0.064544	-0.968098	0.242114	-0.123493	0.248504	0.960726	-0.990244	0.032110	-0.135593
446	2977686758													-9.716071	0.275397	-1.543736	-0.064547	-0.968218	0.241634	-0.123448	0.248027	0.960856	-0.990250	0.032192	-0.135534
447	2977695091													-9.629772	0.111656	-1.657271	-0.064606	-0.968219	0.241615	-0.123270	0.248010	0.960883	-0.990268	0.032295	-0.135375
448	2977703424													-9.622812	-0.011466	-1.592466	-0.064715	-0.968244	0.241487	-0.123250	0.247897	0.960915	-0.990263	0.032422	-0.135378
449	2977711757													-9.637333	-0.041501	-1.671247	-0.064866	-0.968184	0.241684	-0.123070	0.248107	0.960883	-0.990276	0.032585	-0.135249
450	2977720090													-9.622081	-0.012444	-1.686880	-0.065066	-0.968177	0.241659	-0.123068	0.248109	0.960883	-0.990263	0.032780	-0.135296
451	2977728423													-9.651484	0.032034	-1.538279	-0.065291	-0.968133	0.241777	-0.122860	0.248250	0.960873	-0.990274	0.033032	-0.135153
452	2977736756													-9.528061	0.292043	-1.462714	-0.065507	-0.968166	0.241586	-0.122777	0.248087	0.960926	-0.990270	0.033286	-0.135120
453	2977745089													-9.694099	0.576678	-1.359016	-0.065756	-0.968164	0.241525	-0.122682	0.248057	0.960946	-0.990265	0.033557	-0.135088
454	2977753422													-9.919112	0.603291	-1.188480	-0.065961	-0.968259	0.241088	-0.122873	0.247657	0.961025	-0.990228	0.033767	-0.135308
455	2977761755													-9.884831	0.510438	-1.434757	-0.066084	-0.968351	0.240686	-0.122888	0.247276	0.961121	-0.990218	0.033937	-0.135339
456	2977770088													-9.834254	0.364267	-1.504728	-0.066136	-0.968545	0.239887	-0.123071	0.246495	0.961298	-0.990192	0.034054	-0.135502
457	2977778421													-9.715510	0.056086	-1.448287	-0.066205	-0.968725	0.239144	-0.123085	0.245768	0.961482	-0.990185	0.034220	-0.135507
458	2977786754													-9.620734	-0.271498	-1.537101	-0.066357	-0.968936	0.238243	-0.123184	0.244898	0.961691	-0.990163	0.034467	-0.135608
459	2977795087													-9.614177	-0.507009	-1.645950	-0.066686	-0.969054	0.237671	-0.123115	0.244372	0.961834	-0.990149	0.034880	-0.135602
460	2977803420													-9.688780	-0.456412	-1.565593	-0.067131	-0.969167	0.237082	-0.123072	0.243847	0.961973	-0.990125	0.035400	-0.135647
461	2977811753													-9.632516	-0.204328	-1.500611	-0.067709	-0.969194	0.236809	-0.122878	0.243647	0.962048	-0.990109	0.036041	-0.135590
462	2977820086													-9.575519	-0.080322	-1.505994	-0.068303	-0.969283	0.236273	-0.122823	0.243195	0.962170	-0.990075	0.036700	-0.135661
463	2977828419													-9.542933	-0.199463	-1.283756	-0.068963	-0.969317	0.235943	-0.122655	0.242950	0.962253	-0.990050	0.037420	-0.135646
464	2977836752													-9.428130	0.129568	-1.208299	-0.069494	-0.969418	0.235371	-0.122631	0.242453	0.962381	-0.990016	0.038016	-0.135730
465	2977845085													-9.814762	0.876938	-1.222197	-0.070181	-0.969453	0.235022	-0.122593	0.242200	0.962450	-0.989973	0.038733	-0.135846
466	2977853418													-10.241513	0.787511	-1.329326	-0.070873	-0.969639	0.234046	-0.122854	0.241335	0.962634	-0.989891	0.039472	-0.136228
467	2977861751													-10.193274	0.259683	-1.520753	-0.071343	-0.969795	0.233255	-0.122848	0.240614	0.962815	-0.989858	0.040036	-0.136304
468	2977870084													-9.903355	0.330696	-1.402494	-0.071559	-0.969954	0.232528	-0.122886	0.239923	0.962983	-0.989838	0.040336	-0.136362
469	2977878417													-9.568385	0.797337	-1.567159	-0.071706	-0.970027	0.232179	-0.122724	0.239589	0.963087	-0.989847	0.040565	-0.136225
470	2977886750													-9.179174	0.957293	-1.815051	-0.071950	-0.970193	0.231408	-0.122927	0.238866	0.963240	-0.989804	0.040859	-0.136449
471	2977895083													-8.979638	0.615925	-1.923750	-0.072334	-0.970344	0.230650	-0.123156	0.238176	0.963382	-0.989748	0.041279	-0.136732
472	2977903416													-9.271608	0.361594	-1.784212	-0.072736	-0.970541	0.229696	-0.123624	0.237303	0.963537	-0.989660	0.041688	-0.137242
473	2977911749													-9.511753	0.445685	-1.756121	-0.073163	-0.970611	0.229261	-0.123985	0.236946	0.963579	-0.989583	0.042073	-0.137676
474	2977920082													-9.531528	0.577509	-1.589268	-0.073512	-0.970664	0.228928	-0.124439	0.236683	0.963585	-0.989500	0.042348	-0.138187
475	2977928415													-9.520755	0.718033	-1.422876	-0.073756	-0.970610	0.229076	-0.124859	0.236881	0.963482	-0.989429	0.042460	-0.138661
476	2977936748													-9.474817	1.154653	-1.277699	-0.073780	-0.970633	0.228970	-0.125568	0.236811	0.963407	-0.989338	0.042329	-0.139353
477	2977945081													-9.548280	1.453140	-1.632516	-0.073703	-0.970663	0.228868	-0.126277	0.236729	0.963335	-0.989253	0.042099	-0.140020
478	2977953414													-10.160812	1.180084	-1.674506	-0.073424	-0.970892	0.227988	-0.127296	0.235859	0.963414	-0.989143	0.041716	-0.140908
479	2977961747													-10.197938	0.545435	-1.663555	-0.072956	-0.971069	0.227380	-0.128062	0.235221	0.963468	-0.989079	0.041172	-0.141518
480	2977970080													-9.853958	0.325052	-1.406718	-0.072240	-0.971208	0.227017	-0.128558	0.234780	0.963510	-0.989067	0.040419	-0.141817
481	2977978413													-9.628042	0.584048	-1.604607	-0.071550	-0.971175	0.227375	-0.128748	0.235044	0.963420	-0.989093	0.039659	-0.141854
482	2977986746													-9.180430	0.660650	-1.975110	-0.070914	-0.971141	0.227721	-0.129052	0.235310	0.963315	-0.989099	0.038925	-0.142014
483	2977995079													-9.181746	0.540417	-1.847366	-0.070282	-0.971002	0.228508	-0.129352	0.236011	0.963103	-0.989105	0.038130	-0.142189
484	2978003412													-9.441040	0.707735	-1.573637	-0.069661	-0.970938	0.228971	-0.129781	0.236399	0.962950	-0.989093	0.037364	-0.142477
485	2978011745													-9.561002	0.747183	-1.564865	-0.069005	-0.970857	0.229510	-0.130099	0.236852	0.962796	-0.989097	0.036578	-0.142652
486	2978020078													-9.619339	0.768822	-1.389773	-0.068182	-0.970904	0.229556	-0.130637	0.236799	0.962736	-0.989083	0.035653	-0.142981
487	2978028411													-9.514236	0.869233	-1.387770	-0.067217	-0.970951	0.229644	-0.131167	0.236766	0.962672	-0.989079	0.034586	-0.143272
488	2978036744													-9.301352	1.023399	-1.427649	-0.066083	-0.971142	0.229164	-0.132174	0.236161	0.962683	-0.989021	0.033328	-0.143966
489	2978045077													-9.348129	0.937667	-1.443668	-0.064844	-0.971379	0.228511	-0.133256	0.235371	0.962727	-0.988958	0.031976	-0.144704
490	2978053410													-9.751314	0.581419	-1.590513	-0.063555	-0.971752	0.227285	-0.134522	0.234008	0.962883	-0.988870	0.030621	-0.145594
491	2978061743													-10.104774	0.077029	-1.747976	-0.062230	-0.972069	0.226294	-0.135528	0.232864	0.963020	-0.988817	0.029260	-0.146234
492	2978070076													-10.021827	-0.185528	-1.653937	-0.060975	-0.972373	0.225330	-0.136386	0.231750	0.963167	-0.988777	0.027998	-0.146749
493	2978078409													-9.870933	-0.315857	-1.484365	-0.059969	-0.972438	0.225316	-0.136841	0.231600	0.963139	-0.988776	0.026927	-0.146958
494	2978086742													-9.395371	-0.576372	-1.821941	-0.059055	-0.972493	0.225320	-0.137329	0.231482	0.963097	-0.988763	0.025933	-0.147222
495	2978095075													-9.545075	-0.595925	-1.731490	-0.058169	-0.972347	0.226179	-0.137695	0.232212	0.962869	-0.988765	0.024866	-0.147395
496	2978103408													-9.638406	-0.115544	-1.532787	-0.057363	-0.972270	0.226717	-0.138123	0.232636	0.962706	-0.988752	0.023909	-0.147638
497	2978111741													-9.562696	0.181277	-1.575672	-0.056638	-0.972188	0.227251	-0.138546	0.233067	0.962541	-0.988735	0.023032	-0.147893
498	2978120074													-9.763552	0.213970	-1.590912	-0.055949	-0.972280	0.227025	-0.139291	0.232759	0.962508	-0.988670	0.022228	-0.148453
499	2978128407													-9.715672	0.241867	-1.474488	-0.055219	-0.972390	0.226734	-0.140000	0.232378	0.962497	-0.988611	0.021405	-0.148966
500	2978136740													-9.650140	0.277462	-1.246292	-0.054358	-0.972591	0.226080	-0.140785	0.231618	0.962566	-0.988547	0.020494	-0.149516
501	2978145073													-9.713873	0.198622	-1.387118	-0.053614	-0.972723	0.225691	-0.141164	0.231129	0.962628	-0.988533	0.019751	-0.149705
502	2978153406													-9.618004	-0.221324	-1.786853	-0.052948	-0.972911	0.225034	-0.141680	0.230390	0.962729	-0.988496	0.019091	-0.150040
503	2978161739													-9.734134	-0.480580	-1.827101	-0.052287	-0.972981	0.224889	-0.141883	0.230150	0.962757	-0.988502	0.018432	-0.150083
504	2978170072													-9.795010	-0.598382	-1.819235	-0.051800	-0.973033	0.224774	-0.142067	0.229967	0.962773	-0.988501	0.017939	-0.150148
505	2978178405													-9.768963	-0.674928	-1.859711	-0.051405	-0.972987	0.225066	-0.142048	0.230196	0.962721	-0.988524	0.017519	-0.150044
506	2978186738													-9.761114	-0.603491	-1.874225	-0.051099	-0.972931	0.225376	-0.142142	0.230458	0.962645	-0.988526	0.017155	-0.150070
507	2978195071													-9.792803	-0.498644	-1.600966	-0.051019	-0.972750	0.226175	-0.142197	0.231238	0.962450	-0.988523	0.016941	-0.150120
508	2978203404													-9.788754	-0.504435	-1.490061	-0.050965	-0.972636	0.226675	-0.142366	0.231728	0.962307	-0.988501	0.016773	-0.150280
509	2978211737													-9.672414	-0.423452	-1.500334	-0.051058	-0.972445	0.227471	-0.142451	0.232530	0.962100	-0.988484	0.016719	-0.150399
510	2978220070													-9.738017	-0.335672	-1.348886	-0.051180	-0.972334	0.227920	-0.142689	0.232997	0.961952	-0.988443	0.016711	-0.150667
511	2978228403													-9.751943	-0.273307	-1.413739	-0.051380	-0.972186	0.228504	-0.142771	0.233606	0.961792	-0.988421	0.016794	-0.150803
512	2978236736													-9.761203	-0.210791	-1.467930	-0.051589	-0.972128	0.228703	-0.143003	0.233839	0.961701	-0.988377	0.016908	-0.151081
513	2978245069													-9.879214	-0.188651	-1.311685	-0.051833	-0.972050	0.228981	-0.142977	0.234151	0.961629	-0.988368	0.017105	-0.151117
514	2978253402													-9.851504	-0.062119	-1.381034	-0.052011	-0.972068	0.228865	-0.142911	0.234061	0.961661	-0.988368	0.017310	-0.151093
515	2978261735													-9.775442	-0.177266	-1.457637	-0.052388	-0.971986	0.229127	-0.142547	0.234371	0.961639	-0.988401	0.017717	-0.150832
516	2978270068													-9.772177	-0.365679	-1.603038	-0.052710	-0.971993	0.229022	-0.142251	0.234310	0.961698	-0.988426	0.018113	-0.150618
517	2978278401													-9.746423	-0.397361	-1.835393	-0.053157	-0.971923	0.229217	-0.141857	0.234564	0.961695	-0.988459	0.018605	-0.150343
518	2978286734													-9.764892	-0.413288	-1.740257	-0.053648	-0.971899	0.229205	-0.141639	0.234621	0.961713	-0.988464	0.019129	-0.150245
519	2978295067													-9.731667	-0.401823	-1.774246	-0.054292	-0.971778	0.229563	-0.141250	0.235065	0.961662	-0.988484	0.019785	-0.150026
520	2978303400													-9.725956	-0.378251	-1.646162	-0.054951	-0.971712	0.229689	-0.140972	0.235282	0.961649	-0.988487	0.020464	-0.149913
521	2978311733													-9.708361	-0.300782	-1.618312	-0.055755	-0.971555	0.230157	-0.140581	0.235858	0.961565	-0.988498	0.021256	-0.149732
522	2978320066													-9.713906	-0.170910	-1.554337	-0.056503	-0.971503	0.230195	-0.140333	0.236002	0.961566	-0.988491	0.022028	-0.149668
523	2978328399													-9.694748	0.002022	-1.525568	-0.057364	-0.971374	0.230526	-0.139988	0.236451	0.961506	-0.988490	0.022885	-0.149545
524	2978336732													-9.670479	0.192573	-1.516309	-0.058186	-0.971344	0.230447	-0.139771	0.236491	0.961528	-0.988473	0.023737	-0.149526
525	2978345065													-9.673455	0.212292	-1.583186	-0.059054	-0.971273	0.230522	-0.139382	0.236686	0.961537	-0.988476	0.024652	-0.149355
526	2978353398													-9.608934	0.254544	-1.627187	-0.059841	-0.971243	0.230447	-0.139131	0.236722	0.961564	-0.988464	0.025479	-0.149296
527	2978361731													-9.550506	0.341303	-1.571546	-0.060646	-0.971173	0.230530	-0.138806	0.236917	0.961563	-0.988461	0.026316	-0.149172
528	2978370064													-9.530728	0.402001	-1.645173	-0.061367	-0.971138	0.230491	-0.138641	0.236981	0.961571	-0.988440	0.027053	-0.149183
529	2978378397													-9.568704	0.441007	-1.632666	-0.062086	-0.971053	0.230655	-0.138371	0.237243	0.961545	-0.988432	0.027783	-0.149095
530	2978386730													-9.578460	0.511450	-1.792741	-0.062728	-0.971020	0.230620	-0.138372	0.237305	0.961530	-0.988392	0.028403	-0.149248
531	2978395063													-9.568014	0.500194	-1.626000	-0.063386	-0.970913	0.230891	-0.138222	0.237667	0.961462	-0.988371	0.029029	-0.149267
532	2978403396													-9.593556	0.553346	-1.684301	-0.063924	-0.970835	0.231072	-0.138214	0.237926	0.961399	-0.988337	0.029519	-0.149392
533	2978411729													-9.637600	0.559896	-1.672671	-0.064500	-0.970721	0.231387	-0.138129	0.238323	0.961313	-0.988312	0.030043	-0.149456
534	2978420062													-9.702369	0.415291	-1.473422	-0.064913	-0.970677	0.231455	-0.138093	0.238451	0.961286	-0.988290	0.030437	-0.149522
535	2978428395													-9.670115	0.459359	-1.509522	-0.065292	-0.970584	0.231740	-0.137793	0.238780	0.961248	-0.988307	0.030830	-0.149330
536	2978436728													-9.588517	0.598658	-1.566689	-0.065531	-0.970582	0.231683	-0.137637	0.238755	0.961276	-0.988313	0.031106	-0.149233
537	2978445061													-9.585568	0.548682	-1.551878	-0.065776	-0.970558	0.231711	-0.137377	0.238810	0.961300	-0.988333	0.031398	-0.149040
538	2978453394													-9.557797	0.607486	-1.651655	-0.065880	-0.970639	0.231342	-0.137323	0.238459	0.961395	-0.988333	0.031568	-0.149001
539	2978461727													-9.522496	0.703938	-1.695153	-0.065974	-0.970683	0.231134	-0.137198	0.238263	0.961461	-0.988344	0.031720	-0.148894
540	2978470060													-9.452323	0.842977	-1.668412	-0.065937	-0.970813	0.230594	-0.137359	0.237728	0.961571	-0.988324	0.031729	-0.149025
541	2978478393													-9.393886	0.944669	-1.669184	-0.065915	-0.970879	0.230324	-0.137572	0.237464	0.961605	-0.988296	0.031698	-0.149219
542	2978486726													-9.486282	0.952545	-1.686036	-0.065763	-0.971034	0.229712	-0.138054	0.236851	0.961688	-0.988239	0.031531	-0.149631
543	2978495059													-9.697494	0.848941	-1.688577	-0.065603	-0.971187	0.229111	-0.138489	0.236245	0.961774	-0.988189	0.031366	-0.149997
544	2978503392													-9.696978	0.478592	-1.619150	-0.065290	-0.971404	0.228280	-0.139067	0.235394	0.961899	-0.988128	0.031057	-0.150459
545	2978511725													-9.542274	0.346294	-1.654770	-0.064900	-0.971524	0.227882	-0.139464	0.234952	0.961950	-0.988098	0.030649	-0.150741
546	2978520058													-9.565099	0.345811	-1.632685	-0.064466	-0.971659	0.227427	-0.139955	0.234452	0.962001	-0.988057	0.030186	-0.151102
547	2978528391													-9.575776	0.342383	-1.604403	-0.064006	-0.971733	0.227242	-0.140270	0.234208	0.962014	-0.988042	0.029700	-0.151296
548	2978536724													-9.647218	0.367008	-1.685337	-0.063499	-0.971817	0.227024	-0.140736	0.233929	0.962014	-0.988009	0.029137	-0.151624
549	2978545057													-9.616960	0.509165	-1.607917	-0.062917	-0.971909	0.226793	-0.141063	0.233622	0.962041	-0.987999	0.028537	-0.151800
550	2978553390													-9.538956	0.659234	-1.453024	-0.062281	-0.972065	0.226299	-0.141598	0.233052	0.962100	-0.987963	0.027877	-0.152157
551	2978561723													-9.491714	0.761805	-1.467066	-0.061609	-0.972220	0.225814	-0.142015	0.232481	0.962177	-0.987945	0.027209	-0.152393
552	2978570056													-9.576610	0.713114	-1.569033	-0.060897	-0.972456	0.224993	-0.142581	0.231575	0.962312	-0.987908	0.026522	-0.152756
553	2978578389													-9.748454	0.422054	-1.683678	-0.060205	-0.972676	0.224224	-0.143280	0.230726	0.962412	-0.987849	0.025815	-0.153255
554	2978586722													-9.849426	0.024355	-1.687794	-0.059398	-0.972957	0.223220	-0.144114	0.229631	0.962549	-0.987777	0.025004	-0.153857
555	2978595055													-9.697240	-0.183541	-1.693670	-0.058555	-0.973142	0.222634	-0.144793	0.228938	0.962612	-0.987728	0.024130	-0.154310
556	2978603388													-9.496339	-0.225448	-1.740551	-0.057772	-0.973322	0.222052	-0.145645	0.228261	0.962644	-0.987649	0.023274	-0.154947
557	2978611721													-9.483217	-0.038465	-1.851305	-0.057032	-0.973430	0.221768	-0.146354	0.227881	0.962627	-0.987587	0.022444	-0.155462
558	2978620054													-9.507641	0.304372	-1.894395	-0.056270	-0.973661	0.220947	-0.147172	0.226969	0.962718	-0.987509	0.021654	-0.156067
559	2978628387													-9.533984	0.485899	-1.899553	-0.055533	-0.973901	0.220074	-0.147875	0.226006	0.962837	-0.987446	0.020926	-0.156566
560	2978636720													-9.530016	0.495385	-1.757148	-0.054731	-0.974230	0.218816	-0.148714	0.224654	0.963024	-0.987364	0.020166	-0.157177
561	2978645053													-9.520084	0.523287	-1.636265	-0.054007	-0.974513	0.217733	-0.149547	0.223486	0.963166	-0.987278	0.019457	-0.157806
562	2978653386													-9.568088	0.364911	-1.634327	-0.053290	-0.974853	0.216385	-0.150630	0.222061	0.963327	-0.987153	0.018742	-0.158676
563	2978661719													-9.670024	0.128455	-1.692888	-0.052534	-0.975108	0.215416	-0.151637	0.221002	0.963413	-0.987039	0.017946	-0.159473
564	2978670052													-9.764067	-0.063743	-1.698503	-0.051716	-0.975402	0.214280	-0.152778	0.219769	0.963515	-0.986907	0.017091	-0.160385
565	2978678385													-9.716206	-0.209862	-1.781390	-0.050864	-0.975606	0.213556	-0.153543	0.218929	0.963584	-0.986832	0.016222	-0.160933
566	2978686718													-9.560102	-0.284688	-1.837964	-0.050044	-0.975864	0.212567	-0.154462	0.217835	0.963685	-0.986730	0.015393	-0.161636
567	2978695051													-9.542559	-0.213550	-1.899315	-0.049258	-0.976041	0.211939	-0.155186	0.217098	0.963735	-0.986656	0.014582	-0.162161
568	2978703384													-9.533054	-0.068592	-1.935986	-0.048506	-0.976259	0.211105	-0.156103	0.216167	0.963797	-0.986549	0.013796	-0.162882
569	2978711717													-9.619554	0.046417	-1.889012	-0.047822	-0.976416	0.210534	-0.156841	0.215501	0.963826	-0.986465	0.013071	-0.163448
570	2978720050													-9.599077	0.049944	-1.796550	-0.047120	-0.976592	0.209875	-0.157735	0.214747	0.963848	-0.986357	0.012312	-0.164162
571	2978728383													-9.647761	0.000157	-1.683042	-0.046441	-0.976742	0.209330	-0.158470	0.214106	0.963870	-0.986271	0.011591	-0.164727
572	2978736716													-9.785117	-0.111847	-1.740248	-0.045764	-0.976930	0.208599	-0.159105	0.213280	0.963949	-0.986200	0.010925	-0.165195
573	2978745049													-9.725932	-0.166910	-1.704790	-0.045285	-0.977077	0.208015	-0.159583	0.212630	0.964013	-0.986145	0.010460	-0.165554
574	2978753382													-9.754707	-0.369509	-1.879695	-0.044871	-0.977268	0.207206	-0.160229	0.211770	0.964096	-0.986059	0.010059	-0.166089
575	2978761715													-9.809811	-0.768057	-1.846993	-0.044558	-0.977353	0.206872	-0.160527	0.211391	0.964129	-0.986025	0.009752	-0.166311
576	2978770048													-9.830832	-0.912068	-1.768345	-0.044291	-0.977417	0.206624	-0.160888	0.211106	0.964131	-0.985978	0.009459	-0.166605
577	2978778381													-9.780044	-0.666371	-1.669503	-0.044149	-0.977369	0.206883	-0.160991	0.211339	0.964063	-0.985968	0.009256	-0.166678
578	2978786714													-9.681777	-0.398491	-1.657933	-0.044058	-0.977338	0.207048	-0.161173	0.211488	0.964000	-0.985942	0.009102	-0.166838
579	2978795047													-9.607105	-0.156390	-1.604554	-0.044005	-0.977321	0.207138	-0.161214	0.211569	0.963976	-0.985938	0.009026	-0.166868
580	2978803380													-9.605846	0.048887	-1.638465	-0.043942	-0.977417	0.206699	-0.161537	0.211128	0.964018	-0.985888	0.008972	-0.167167
581	2978811713													-9.603009	0.089714	-1.575444	-0.043980	-0.977484	0.206375	-0.161941	0.210818	0.964018	-0.985820	0.008977	-0.167567
582	2978820046													-9.611798	0.099610	-1.645558	-0.043929	-0.977635	0.205667	-0.162585	0.210118	0.964063	-0.985716	0.008912	-0.168179
583	2978828379													-9.622945	0.056611	-1.733849	-0.043913	-0.977754	0.205108	-0.163212	0.209569	0.964076	-0.985613	0.008859	-0.168783
584	2978836712													-9.591675	0.077556	-1.704034	-0.043659	-0.977956	0.204197	-0.163907	0.208634	0.964161	-0.985509	0.008625	-0.169403
585	2978845045													-9.638717	0.263656	-1.693458	-0.043442	-0.978044	0.203822	-0.164336	0.208231	0.964175	-0.985447	0.008390	-0.169773
586	2978853378													-9.486840	0.166860	-1.759175	-0.043208	-0.978130	0.203456	-0.164885	0.207835	0.964167	-0.985366	0.008113	-0.170259
587	2978861711													-9.678647	0.110422	-1.686327	-0.042916	-0.978129	0.203522	-0.165148	0.207852	0.964118	-0.985335	0.007765	-0.170456
588	2978870044													-9.609784	0.182453	-1.886475	-0.042598	-0.978122	0.203623	-0.165362	0.207900	0.964071	-0.985312	0.007396	-0.170601
589	2978878377													-9.499651	0.238338	-1.837956	-0.042363	-0.978055	0.203997	-0.165556	0.208229	0.963967	-0.985290	0.007064	-0.170744
590	2978886710													-9.580721	0.245428	-1.956920	-0.042044	-0.978075	0.203963	-0.165950	0.208145	0.963917	-0.985237	0.006679	-0.171063
591	2978895043													-9.628330	0.028588	-1.872758	-0.041796	-0.978044	0.204165	-0.166212	0.208303	0.963838	-0.985204	0.006350	-0.171269
592	2978903376													-9.579426	-0.187455	-1.800062	-0.041463	-0.978055	0.204178	-0.166542	0.208260	0.963790	-0.985162	0.005957	-0.171522
593	2978911709													-9.538439	-0.247758	-1.826798	-0.041198	-0.977977	0.204609	-0.166893	0.208641	0.963647	-0.985114	0.005553	-0.171813
594	2978920042													-9.544788	-0.213528	-1.737893	-0.040848	-0.977924	0.204932	-0.167396	0.208902	0.963503	-0.985043	0.005052	-0.172234
595	2978928375													-9.577820	0.028563	-1.654953	-0.040532	-0.977788	0.205641	-0.167825	0.209549	0.963288	-0.984983	0.004532	-0.172591
596	2978936708													-9.536180	0.224283	-1.592293	-0.040056	-0.977722	0.206045	-0.168353	0.209866	0.963127	-0.984913	0.003891	-0.173009
597	2978945041													-9.476132	0.534162	-1.781005	-0.039481	-0.977648	0.206509	-0.168810	0.210225	0.962969	-0.984858	0.003158	-0.173337
598	2978953374													-9.446267	0.699432	-1.819765	-0.038680	-0.977712	0.206359	-0.169570	0.209941	0.962897	-0.984759	0.002253	-0.173911
599	2978961707													-9.395445	0.730696	-1.933015	-0.037802	-0.977808	0.206065	-0.170369	0.209500	0.962852	-0.984655	0.001291	-0.174508
600	2978970040													-9.406774	0.616926	-2.051986	-0.036739	-0.978054	0.205086	-0.171411	0.208350	0.962917	-0.984514	0.000223	-0.175304
601	2978978373													-9.466768	0.340149	-1.943421	-0.035783	-0.978197	0.204574	-0.172398	0.207678	0.962886	-0.984377	-0.000814	-0.176071
602	2978986706													-9.543059	-0.153261	-1.613770	-0.034864	-0.978248	0.204486	-0.173508	0.207428	0.962740	-0.984215	-0.001915	-0.176966
603	2978995039													-9.630673	-0.262694	-1.645617	-0.033974	-0.978117	0.205263	-0.174391	0.208033	0.962450	-0.984090	-0.003098	-0.177642
604	2979003372													-9.657348	0.103604	-1.756789	-0.032920	-0.977995	0.206013	-0.175338	0.208579	0.962160	-0.983958	-0.004447	-0.178347
605	2979011705													-9.556087	0.559171	-1.503273	-0.031781	-0.977793	0.207152	-0.176360	0.209490	0.961775	-0.983812	-0.005967	-0.179102
606	2979020038													-9.494383	0.697776	-1.405554	-0.030403	-0.977733	0.207639	-0.177750	0.209712	0.961471	-0.983606	-0.007676	-0.180168
607	2979028371													-9.379474	0.742519	-1.871137	-0.028996	-0.977750	0.207759	-0.179365	0.209562	0.961203	-0.983355	-0.009394	-0.181450
608	2979036704													-9.362857	0.443313	-1.855055	-0.027477	-0.977849	0.207501	-0.181056	0.209015	0.961006	-0.983089	-0.011164	-0.182789
609	2979045037													-9.491379	0.253450	-1.690510	-0.025776	-0.977960	0.207194	-0.182606	0.208382	0.960850	-0.982848	-0.013068	-0.183953
610	2979053370													-9.485802	0.133129	-1.851157	-0.024077	-0.978067	0.206895	-0.184242	0.207751	0.960674	-0.982586	-0.014988	-0.185203
611	2979061703													-9.432596	0.095348	-2.273166	-0.022341	-0.978185	0.206529	-0.185777	0.207045	0.960531	-0.982338	-0.016909	-0.186350
612	2979070036													-9.543213	0.292783	-2.403744	-0.020498	-0.978287	0.206239	-0.187190	0.206390	0.960397	-0.982110	-0.018919	-0.187356
613	2979078369													-9.599011	0.120262	-2.388621	-0.018690	-0.978396	0.205893	-0.188707	0.205680	0.960253	-0.981856	-0.020906	-0.188474
614	2979086702													-9.430116	-0.114447	-2.886732	-0.016921	-0.978546	0.205334	-0.190136	0.204766	0.960166	-0.981612	-0.022794	-0.189521
615	2979095035													-9.399362	-0.487079	-2.636516	-0.015309	-0.978679	0.204825	-0.191613	0.203924	0.960052	-0.981351	-0.024550	-0.190649
616	2979103368													-9.564912	-0.682977	-2.445519	-0.013867	-0.978743	0.204621	-0.193176	0.203408	0.959848	-0.981066	-0.026217	-0.191890
617	2979111701													-9.653325	-0.453577	-2.251965	-0.012459	-0.978773	0.204570	-0.194641	0.203047	0.959628	-0.980795	-0.027862	-0.193039
618	2979120034													-9.652466	-0.415214	-1.761877	-0.011032	-0.978802	0.204510	-0.195976	0.202673	0.959436	-0.980547	-0.029494	-0.194057
619	2979128367													-9.683274	-0.462912	-1.871713	-0.009569	-0.978910	0.204070	-0.197347	0.201914	0.959315	-0.980287	-0.031093	-0.195117
620	2979136700													-9.654589	-0.519211	-1.867524	-0.008015	-0.979060	0.203415	-0.198653	0.200926	0.959253	-0.980037	-0.032721	-0.196103
621	2979145033													-9.639592	-0.738656	-1.868492	-0.006513	-0.979244	0.202579	-0.200052	0.199764	0.959205	-0.979764	-0.034279	-0.197201
622	2979153366													-9.723340	-1.073243	-1.974828	-0.005098	-0.979431	0.201715	-0.201513	0.198586	0.959143	-0.979473	-0.035759	-0.198381
623	2979161699													-9.729507	-1.255689	-2.080807	-0.003749	-0.979582	0.201012	-0.202748	0.197583	0.959090	-0.979224	-0.037159	-0.199349
624	2979170032													-9.738704	-1.334244	-2.196064	-0.002419	-0.979716	0.200376	-0.203749	0.196656	0.959069	-0.979020	-0.038506	-0.200092
625	2979178365													-9.636994	-1.121419	-2.405015	-0.001141	-0.979834	0.199808	-0.204823	0.195801	0.959015	-0.978798	-0.039831	-0.200916
626	2979186698													-9.614716	-0.985720	-2.268227	0.000003	-0.979937	0.199308	-0.205734	0.195043	0.958974	-0.978608	-0.041007	-0.201606
627	2979195031													-9.698073	-1.057409	-2.172449	0.000863	-0.979928	0.199351	-0.206295	0.194889	0.958885	-0.978490	-0.041953	-0.201986
628	2979203364													-9.608163	-0.937435	-2.458860	0.001582	-0.979901	0.199477	-0.206845	0.194842	0.958776	-0.978372	-0.042778	-0.202379
629	2979211697													-9.701671	-0.875487	-2.394054	0.002274	-0.979899	0.199482	-0.207307	0.194687	0.958708	-0.978273	-0.043534	-0.202698
630	2979220030													-9.671993	-0.865185	-2.413358	0.002823	-0.979958	0.199183	-0.207597	0.194270	0.958730	-0.978210	-0.044057	-0.202887
631	2979228363													-9.548177	-1.085695	-2.384287	0.003187	-0.980034	0.198802	-0.207972	0.193807	0.958742	-0.978130	-0.044401	-0.203202
632	2979236696													-9.713957	-1.322589	-1.963443	0.003444	-0.980062	0.198664	-0.208398	0.193600	0.958692	-0.978038	-0.044703	-0.203576
633	2979245029													-9.909019	-1.265213	-1.750543	0.003715	-0.980016	0.198884	-0.208632	0.193749	0.958610	-0.977987	-0.045055	-0.203743
634	2979253362													-9.811399	-0.842607	-1.644350	0.004141	-0.979945	0.199226	-0.208612	0.193998	0.958564	-0.977990	-0.045531	-0.203625
635	2979261695													-9.611409	-0.554020	-1.764092	0.004776	-0.979889	0.199488	-0.208715	0.194120	0.958517	-0.977965	-0.046214	-0.203591
636	2979270028													-9.331957	-0.441193	-2.241698	0.005610	-0.979888	0.199467	-0.208741	0.193929	0.958550	-0.977955	-0.047015	-0.203455
637	2979278361													-9.282658	-0.561980	-2.394572	0.006436	-0.979886	0.199454	-0.208835	0.193743	0.958567	-0.977930	-0.047823	-0.203387
638	2979286694													-9.415613	-0.589064	-2.648571	0.007250	-0.979844	0.199632	-0.208889	0.193749	0.958555	-0.977913	-0.048651	-0.203274
639	2979295027													-9.448554	-0.550764	-3.102710	0.007872	-0.979776	0.199940	-0.208942	0.193921	0.958508	-0.977896	-0.049322	-0.203190
640	2979303360													-9.549556	-0.606296	-2.567385	0.008216	-0.979678	0.200406	-0.208845	0.194312	0.958450	-0.977914	-0.049728	-0.203005
641	2979311693													-9.767569	-0.757879	-2.418518	0.008353	-0.979491	0.201313	-0.208697	0.195179	0.958306	-0.977945	-0.050018	-0.202787
642	2979320026													-9.866921	-0.735564	-2.422844	0.008384	-0.979276	0.202358	-0.208260	0.196218	0.958189	-0.978038	-0.050177	-0.202299
643	2979328359													-9.754145	-0.575461	-2.081154	0.008420	-0.979076	0.203322	-0.207786	0.197178	0.958095	-0.978138	-0.050315	-0.201778
644	2979336692													-9.596290	-0.801476	-1.981972	0.008429	-0.978925	0.204047	-0.207450	0.197903	0.958018	-0.978209	-0.050404	-0.201410
645	2979345025													-9.642575	-0.866095	-2.056540	0.008343	-0.978819	0.204557	-0.207069	0.198439	0.957990	-0.978291	-0.050350	-0.201027
646	2979353358													-9.663887	-0.797863	-1.928537	0.008193	-0.978752	0.204886	-0.206581	0.198816	0.958017	-0.978395	-0.050175	-0.200563
647	2979361691													-9.681693	-0.744572	-1.659424	0.008134	-0.978657	0.205342	-0.206111	0.199298	0.958018	-0.978495	-0.050116	-0.200090
648	2979370024													-9.618005	-0.969302	-1.650067	0.008143	-0.978490	0.206132	-0.205241	0.200115	0.958035	-0.978678	-0.050108	-0.199196
649	2979378357													-9.575177	-0.670843	-1.998806	0.008421	-0.978255	0.207233	-0.204410	0.201181	0.957989	-0.978849	-0.050427	-0.198271
650	2979386690													-9.553308	-0.302901	-2.133302	0.008725	-0.978037	0.208248	-0.203621	0.202155	0.957952	-0.979011	-0.050762	-0.197385
651	2979395023													-9.474332	-0.133581	-2.392242	0.008889	-0.977818	0.209270	-0.203065	0.203152	0.957859	-0.979125	-0.051010	-0.196755
652	2979403356													-9.451743	-0.132560	-2.558100	0.008819	-0.977570	0.210428	-0.202436	0.204333	0.957741	-0.979256	-0.051044	-0.196094
653	2979411689													-9.416797	-0.725650	-2.580134	0.008677	-0.977317	0.211603	-0.201811	0.205545	0.957614	-0.979386	-0.051013	-0.195450
654	2979420022													-9.555070	-0.856726	-2.412377	0.008638	-0.977044	0.212863	-0.201243	0.206817	0.957459	-0.979503	-0.051108	-0.194837
655	2979428355													-9.707174	-0.549447	-2.134959	0.008588	-0.976777	0.214084	-0.200414	0.208067	0.957362	-0.979674	-0.051127	-0.193973
656	2979436688													-9.632601	-0.357332	-2.313359	0.008534	-0.976613	0.214837	-0.199417	0.208867	0.957396	-0.979878	-0.051012	-0.192970
657	2979445021													-9.408459	-0.414995	-2.179895	0.008500	-0.976475	0.215465	-0.198626	0.209530	0.957416	-0.980039	-0.050935	-0.192172
658	2979453354													-9.478704	-0.686961	-1.614765	0.008475	-0.976264	0.216420	-0.197658	0.210522	0.957398	-0.980234	-0.050891	-0.191182
659	2979461687													-9.570192	-0.590927	-1.732748	0.008586	-0.975977	0.217704	-0.196691	0.211811	0.957313	-0.980428	-0.051040	-0.190147
660	2979470020													-9.564723	-0.230005	-1.934574	0.008929	-0.975699	0.218934	-0.195898	0.212993	0.957214	-0.980584	-0.051435	-0.189235
661	2979478353													-9.598627	0.077623	-2.149815	0.009299	-0.975504	0.219787	-0.195251	0.213794	0.957167	-0.980709	-0.051815	-0.188480
662	2979486686													-9.450471	-0.316040	-2.018688	0.009450	-0.975321	0.220587	-0.194587	0.214586	0.957125	-0.980840	-0.051969	-0.187757
663	2979495019													-9.509121	-0.773974	-2.218820	0.009675	-0.975078	0.221651	-0.193906	0.215624	0.957030	-0.980972	-0.052238	-0.186987
664	2979503352													-9.701633	-0.524651	-2.211072	0.010095	-0.974776	0.222958	-0.192977	0.216878	0.956935	-0.981151	-0.052686	-0.185920
665	2979511685													-9.600419	-0.089316	-2.288436	0.010660	-0.974530	0.224005	-0.191981	0.217856	0.956913	-0.981341	-0.053206	-0.184769
666	2979520018													-9.495094	0.060903	-2.428585	0.011324	-0.974397	0.224551	-0.191006	0.218323	0.957002	-0.981524	-0.053728	-0.183643
667	2979528351													-9.426744	0.025665	-2.546143	0.012030	-0.974324	0.224828	-0.190131	0.218513	0.957132	-0.981685	-0.054261	-0.182620
668	2979536684													-9.338311	-0.126425	-2.503252	0.012671	-0.974279	0.224989	-0.189233	0.218604	0.957289	-0.981851	-0.054705	-0.181596
669	2979545017													-9.267747	-0.298578	-2.547254	0.013298	-0.974261	0.225032	-0.188503	0.218574	0.957440	-0.981983	-0.055151	-0.180744
670	2979553350													-9.393057	-0.287388	-2.284116	0.014013	-0.974184	0.225320	-0.187636	0.218777	0.957564	-0.982139	-0.055697	-0.179726
671	2979561683													-9.439826	-0.468882	-1.873512	0.014832	-0.974017	0.225988	-0.187002	0.219323	0.957563	-0.982247	-0.056462	-0.178891
672	2979570016													-9.483116	-0.709108	-2.052670	0.015881	-0.973798	0.226862	-0.186220	0.220040	0.957551	-0.982380	-0.057453	-0.177846
673	2979578349													-9.712747	-0.526097	-2.209459	0.017349	-0.973517	0.227956	-0.185529	0.220897	0.957488	-0.982486	-0.058904	-0.176783
674	2979586682													-9.942809	0.082240	-1.960366	0.019186	-0.973312	0.228681	-0.184715	0.221336	0.957544	-0.982605	-0.060612	-0.175539
675	2979595015													-9.771357	-0.079539	-2.002650	0.020847	-0.973209	0.228975	-0.183819	0.221389	0.957704	-0.982739	-0.062055	-0.174279
676	2979603348													-9.636889	-0.378140	-2.197222	0.022164	-0.973207	0.228858	-0.182934	0.221102	0.957940	-0.982875	-0.063098	-0.173132
677	2979611681													-9.467796	-0.948833	-2.474908	0.023398	-0.973281	0.228420	-0.182155	0.220507	0.958225	-0.982991	-0.064029	-0.172129
678	2979620014													-9.815712	-1.152123	-2.323446	0.024647	-0.973270	0.228336	-0.181064	0.220282	0.958484	-0.983162	-0.064967	-0.170795
679	2979628347													-9.537554	-1.120624	-2.206422	0.025688	-0.973239	0.228357	-0.179885	0.220203	0.958724	-0.983352	-0.065706	-0.169414
680	2979636680													-9.698809	-1.147892	-2.169542	0.026589	-0.973176	0.228519	-0.178449	0.220307	0.958969	-0.983590	-0.066277	-0.167804
681	2979645013													-9.752108	-0.822473	-2.087327	0.027457	-0.973085	0.228805	-0.176905	0.220548	0.959199	-0.983845	-0.066814	-0.166088
682	2979653346													-9.607073	-0.612887	-1.914680	0.028393	-0.972967	0.229194	-0.175512	0.220872	0.959381	-0.984068	-0.067466	-0.164496
683	2979661679													-9.524986	-0.681499	-1.837495	0.029393	-0.972856	0.229536	-0.174141	0.221140	0.959569	-0.984282	-0.068177	-0.162914
684	2979670012													-9.617377	-0.816160	-1.865564	0.030387	-0.972768	0.229782	-0.172617	0.221327	0.959801	-0.984520	-0.068829	-0.161191
685	2979678345													-9.758069	-0.780847	-1.563275	0.031448	-0.972667	0.230066	-0.171226	0.221535	0.960002	-0.984730	-0.069583	-0.159579
686	2979686678													-9.753750	-0.965354	-1.294382	0.032482	-0.972547	0.230430	-0.169621	0.221843	0.960216	-0.984974	-0.070275	-0.157759
687	2979695011													-9.807205	-1.309065	-1.366506	0.033393	-0.972417	0.230848	-0.167771	0.222246	0.960448	-0.985260	-0.070802	-0.155722
688	2979703344													-9.954587	-1.548192	-1.020776	0.034165	-0.972245	0.231456	-0.165767	0.222871	0.960651	-0.985573	-0.071188	-0.153552
689	2979711677													-10.139760	-1.503628	-1.074443	0.034872	-0.971997	0.232391	-0.163530	0.223848	0.960807	-0.985922	-0.071509	-0.151145
690	2979720010													-10.100384	-1.228882	-1.172595	0.035552	-0.971703	0.233516	-0.161290	0.225022	0.960911	-0.986266	-0.071826	-0.148726
691	2979728343													-10.085652	-0.824278	-1.030679	0.036339	-0.971429	0.234531	-0.158993	0.226077	0.961047	-0.986611	-0.072213	-0.146235
692	2979736676													-9.840756	-0.907645	-1.024796	0.037196	-0.971201	0.235339	-0.156740	0.226917	0.961219	-0.986939	-0.072641	-0.143786
693	2979745009													-9.727950	-0.985784	-1.422033	0.037944	-0.971101	0.235635	-0.154221	0.227289	0.961538	-0.987308	-0.072825	-0.141139
694	2979753342													-9.666996	-1.054359	-1.577005	0.038364	-0.971066	0.235709	-0.151266	0.227521	0.961953	-0.987748	-0.072559	-0.138161
695	2979761675													-10.185826	-1.386581	-1.346191	0.038590	-0.970992	0.235978	-0.148034	0.227993	0.962344	-0.988229	-0.072069	-0.134941
696	2979770008													-10.448888	-1.624159	-1.265160	0.038708	-0.970833	0.236610	-0.144053	0.228893	0.962734	-0.988813	-0.071350	-0.130991
697	2979778341													-10.607830	-1.642439	-1.035360	0.038839	-0.970567	0.237680	-0.139301	0.230278	0.963103	-0.989488	-0.070515	-0.126257
698	2979786674													-10.499137	-1.538661	-0.958426	0.039069	-0.970276	0.238825	-0.134101	0.231755	0.963487	-0.990197	-0.069670	-0.121061
699	2979795007													-10.182300	-1.561957	-0.975854	0.039277	-0.969984	0.239977	-0.128646	0.233254	0.963869	-0.990912	-0.068730	-0.115623
700	2979803340													-9.885539	-1.570284	-1.004498	0.039407	-0.969714	0.241041	-0.123119	0.234678	0.964245	-0.991609	-0.067675	-0.110142
701	2979811673													-9.813105	-1.635246	-1.008757	0.039593	-0.969462	0.242026	-0.118058	0.235981	0.964560	-0.992217	-0.066762	-0.105110
702	2979820006													-9.715142	-1.668639	-0.807107	0.039658	-0.969182	0.243133	-0.113157	0.237403	0.964798	-0.992785	-0.065775	-0.100255
703	2979828339													-9.480268	-1.781910	-0.642855	0.039616	-0.968764	0.244799	-0.108515	0.239371	0.964845	-0.993305	-0.064787	-0.095643
704	2979836672													-9.321911	-1.832917	-0.950097	0.039532	-0.968222	0.246947	-0.104230	0.241797	0.964713	-0.993767	-0.063876	-0.091359
705	2979845005													-9.334446	-1.869825	-1.166172	0.039474	-0.967511	0.249728	-0.100252	0.244827	0.964370	-0.994179	-0.063103	-0.087330
706	2979853338													-9.614999	-1.711486	-1.374911	0.039239	-0.966567	0.253395	-0.096498	0.248740	0.963751	-0.994559	-0.062269	-0.083512
707	2979861671													-9.754353	-1.917108	-1.760511	0.038665	-0.965183	0.258700	-0.093581	0.254259	0.962598	-0.994861	-0.061428	-0.080492
708	2979870004													-9.269702	-2.560332	-2.703654	0.037207	-0.963115	0.266504	-0.091624	0.262277	0.960633	-0.995098	-0.060161	-0.078485
709	2979878337													-8.896791	-2.942096	-3.495380	0.035116	-0.960136	0.277320	-0.090355	0.273304	0.957675	-0.995290	-0.058687	-0.077156
710	2979886670													-8.997496	-1.970874	-3.930926	0.032689	-0.956334	0.290442	-0.089509	0.286628	0.953851	-0.995449	-0.057177	-0.076231
711	2979895003													-9.147243	-1.448784	-3.816828	0.030110	-0.951570	0.305953	-0.088963	0.302326	0.949044	-0.995580	-0.055795	-0.075552
712	2979903336													-9.549229	-2.447297	-3.450340	0.027296	-0.945787	0.323639	-0.089074	0.320171	0.943163	-0.995651	-0.054573	-0.075506
713	2979911669													-9.569115	-3.889234	-3.238935	0.024479	-0.938583	0.344184	-0.089280	0.340859	0.935865	-0.995706	-0.053638	-0.075453
714	2979920002													-9.322213	-5.361127	-3.083193	0.021571	-0.929270	0.368770	-0.090379	0.365533	0.926400	-0.995674	-0.053313	-0.076102
715	2979928335													-9.660063	-5.579880	-2.845899	0.018385	-0.917330	0.397702	-0.092033	0.394528	0.914263	-0.995586	-0.053410	-0.077171
716	2979936668													-9.762215	-4.395144	-2.741353	0.014863	-0.902717	0.429978	-0.093532	0.426885	0.899456	-0.995505	-0.053585	-0.078088
717	2979945001													-9.546259	-2.961732	-2.456747	0.011149	-0.885786	0.463960	-0.095349	0.460933	0.882298	-0.995381	-0.054075	-0.079320
718	2979953334													-9.385277	-1.911398	-2.410045	0.006991	-0.867364	0.497625	-0.096960	0.494705	0.863635	-0.995264	-0.054287	-0.080642
719	2979961667													-9.359661	-1.202259	-2.263092	0.002575	-0.847884	0.530176	-0.098534	0.527383	0.843895	-0.995130	-0.054413	-0.082187
720	2979970000													-9.277892	-0.720667	-2.091269	-0.002008	-0.827509	0.561448	-0.100106	0.558795	0.823241	-0.994975	-0.054551	-0.083961
721	2979978333													-9.290173	-0.416537	-2.057430	-0.006716	-0.806784	0.590809	-0.101361	0.588328	0.802244	-0.994827	-0.054497	-0.085727
722	2979986666													-9.251109	0.211625	-1.785743	-0.011371	-0.786129	0.617957	-0.102082	0.615681	0.781355	-0.994711	-0.054198	-0.087250
723	2979994999													-9.135094	0.432695	-0.987392	-0.015648	-0.765728	0.642974	-0.102927	0.640870	0.760718	-0.994566	-0.054276	-0.088843
724	2980003332													-9.199084	0.035242	-0.587432	-0.019555	-0.746219	0.665413	-0.103265	0.663489	0.741026	-0.994462	-0.054223	-0.090033
725	2980011665													-9.267050	-0.104622	-0.615459	-0.022806	-0.727795	0.685415	-0.103359	0.683636	0.722467	-0.994383	-0.054367	-0.090815
726	2980019998													-9.085304	0.189917	-0.636771	-0.025556	-0.710471	0.703262	-0.103586	0.701587	0.705014	-0.994292	-0.054831	-0.091525
727	2980028331													-8.848577	0.677881	-0.451123	-0.027997	-0.694621	0.718831	-0.103643	0.717255	0.689060	-0.994220	-0.055210	-0.092073
728	2980036664													-8.757318	1.075951	-0.208380	-0.030176	-0.680644	0.731992	-0.103213	0.730533	0.675032	-0.994201	-0.055181	-0.092296
729	2980044997													-8.784030	1.284107	-0.261438	-0.031913	-0.669088	0.742498	-0.102935	0.741126	0.663428	-0.994176	-0.055257	-0.092524
730	2980053330													-8.854710	1.027243	-0.141044	-0.033464	-0.660063	0.750464	-0.102448	0.749195	0.654379	-0.994175	-0.054986	-0.092693
731	2980061663													-9.077569	0.752182	-0.139840	-0.034489	-0.653347	0.756272	-0.102102	0.755067	0.647649	-0.994176	-0.054880	-0.092749
732	2980069996													-9.157692	0.513419	-0.409395	-0.035282	-0.648715	0.760213	-0.101487	0.759080	0.643038	-0.994211	-0.054464	-0.092618
733	2980078329													-9.267794	0.410438	-0.610032	-0.035791	-0.645731	0.762725	-0.101080	0.761640	0.640069	-0.994234	-0.054188	-0.092530
734	2980086662													-9.425367	0.124951	-0.623144	-0.036242	-0.644101	0.764081	-0.100449	0.763059	0.638475	-0.994282	-0.053611	-0.092354
735	2980094995													-9.464378	-0.017110	-0.715124	-0.036506	-0.643471	0.764600	-0.099729	0.763636	0.637898	-0.994345	-0.052966	-0.092050
736	2980103328													-9.403854	-0.104448	-0.773935	-0.036512	-0.643710	0.764398	-0.099094	0.763470	0.638195	-0.994408	-0.052446	-0.091664
737	2980111661													-9.286972	-0.431808	-0.703190	-0.036473	-0.644563	0.763681	-0.098470	0.762789	0.639107	-0.994471	-0.051890	-0.091291
738	2980119994													-9.230436	-0.632417	-1.050386	-0.036574	-0.645967	0.762488	-0.097875	0.761646	0.640559	-0.994526	-0.051201	-0.091080
739	2980128327													-9.351428	-0.653618	-1.182895	-0.036457	-0.647268	0.761390	-0.097443	0.760568	0.641904	-0.994573	-0.050790	-0.090800
740	2980136660													-9.386578	-0.526347	-1.132464	-0.036442	-0.648256	0.760550	-0.096915	0.759761	0.642939	-0.994625	-0.050279	-0.090512
741	2980144993													-9.530726	-0.360581	-1.177919	-0.036163	-0.649128	0.759819	-0.095998	0.759056	0.643908	-0.994724	-0.049656	-0.089765
742	2980153326													-9.511275	-0.327159	-0.983578	-0.035961	-0.649176	0.759788	-0.095037	0.759056	0.644052	-0.994824	-0.049047	-0.088992
743	2980161659													-9.816775	-0.217951	-0.568566	-0.035679	-0.648561	0.760326	-0.094004	0.759615	0.643543	-0.994932	-0.048513	-0.088069
744	2980169992													-9.887712	-0.168752	-0.536882	-0.035639	-0.647193	0.761493	-0.092705	0.760832	0.642293	-0.995056	-0.047703	-0.087113
745	2980178325													-9.802268	-0.618555	-0.647579	-0.036088	-0.645473	0.762930	-0.092127	0.762325	0.640604	-0.995093	-0.047168	-0.086976
746	2980186658													-9.593973	-1.869267	-0.431149	-0.036069	-0.643319	0.764748	-0.091767	0.764145	0.638483	-0.995127	-0.047149	-0.086598
747	2980194991													-9.096510	-0.197744	-4.370733	-0.036494	-0.643829	0.764299	-0.094160	0.763621	0.638762	-0.994888	-0.048655	-0.088491
748	2980203324													-11.196704	2.404936	0.005670	-0.036063	-0.642510	0.765428	-0.094393	0.764692	0.637445	-0.994882	-0.049263	-0.088226
749	2980211657													-9.167543	1.180976	-1.008832	-0.035236	-0.643697	0.764469	-0.095498	0.763612	0.638574	-0.994806	-0.050505	-0.088378
750	2980219990													-9.534477	2.029237	-1.821978	-0.035272	-0.647028	0.761650	-0.096840	0.760751	0.641779	-0.994675	-0.051121	-0.089492
751	2980228323													-9.810882	0.140953	-0.619880	-0.035022	-0.649648	0.759428	-0.097275	0.758502	0.644370	-0.994641	-0.051306	-0.089759
752	2980236656													-9.217435	-0.327149	-0.939378	-0.035344	-0.652309	0.757129	-0.098722	0.756175	0.646879	-0.994487	-0.051882	-0.091123
753	2980244989													-10.315970	-0.188409	-0.704441	-0.036060	-0.653787	0.755819	-0.100113	0.754870	0.648189	-0.994322	-0.052293	-0.092673
754	2980253322													-10.490705	-0.152936	-0.788986	-0.036914	-0.654928	0.754789	-0.101318	0.753865	0.649171	-0.994169	-0.052511	-0.094184
755	2980261655													-10.484033	-0.012793	-1.062101	-0.038080	-0.654881	0.754772	-0.102271	0.753908	0.648971	-0.994027	-0.052479	-0.095685
756	2980269988													-10.099339	0.221149	-1.156665	-0.039448	-0.654262	0.755238	-0.103283	0.754448	0.648183	-0.993869	-0.052434	-0.097336
757	2980278321													-10.176805	0.765910	-1.088721	-0.040977	-0.653375	0.755924	-0.104273	0.755225	0.647119	-0.993704	-0.052306	-0.099076
758	2980286654													-11.175118	1.724567	-0.655459	-0.042449	-0.652372	0.756710	-0.105594	0.756080	0.645905	-0.993503	-0.052486	-0.100982
759	2980294987													-10.767581	1.771532	-0.863606	-0.043889	-0.651519	0.757362	-0.107768	0.756756	0.644753	-0.993207	-0.053322	-0.103426
760	2980303320													-10.169978	0.448191	-0.405648	-0.045277	-0.650791	0.757906	-0.110457	0.757293	0.643666	-0.992849	-0.054572	-0.106172
761	2980311653													-9.483223	-0.274424	-0.086015	-0.046401	-0.650154	0.758384	-0.113217	0.757733	0.642669	-0.992486	-0.056041	-0.108768
762	2980319986													-9.722531	0.239684	-0.180919	-0.047174	-0.649433	0.758954	-0.115674	0.758240	0.641632	-0.992166	-0.057522	-0.110892
763	2980328319													-9.954336	0.622875	-0.018199	-0.047971	-0.649097	0.759191	-0.117992	0.758427	0.640988	-0.991855	-0.058829	-0.112971
764	2980336652													-9.861547	0.614500	-0.061882	-0.048791	-0.649294	0.758971	-0.120212	0.758170	0.640880	-0.991548	-0.059969	-0.115045
765	2980344985													-9.870901	0.292167	-0.334721	-0.049765	-0.649847	0.758434	-0.122320	0.757624	0.641127	-0.991242	-0.060866	-0.117193
766	2980353318													-10.008942	-0.138765	-0.238175	-0.050767	-0.650427	0.757871	-0.124146	0.757073	0.641426	-0.990964	-0.061523	-0.119183
767	2980361651													-9.946064	-0.238672	-0.269310	-0.051787	-0.650736	0.757536	-0.125767	0.756764	0.641476	-0.990707	-0.062053	-0.121032
768	2980369984													-9.862826	-0.224195	-0.446220	-0.052999	-0.650992	0.757232	-0.127060	0.756530	0.641496	-0.990478	-0.062215	-0.122810
769	2980378317													-10.049331	-0.116141	-0.440068	-0.054402	-0.651287	0.756879	-0.128146	0.756287	0.641567	-0.990262	-0.062088	-0.124603
770	2980386650													-10.316118	-0.261559	-0.478455	-0.055908	-0.651546	0.756546	-0.129137	0.756085	0.641607	-0.990049	-0.061828	-0.126410
771	2980394983													-10.251678	-0.468571	-0.697874	-0.057535	-0.651698	0.756293	-0.130005	0.755988	0.641546	-0.989843	-0.061411	-0.128220
772	2980403316													-10.089476	-0.414894	-0.687483	-0.059191	-0.651820	0.756060	-0.130724	0.755927	0.641471	-0.989650	-0.060866	-0.129953
773	2980411649													-9.965501	-0.302368	-0.807966	-0.060782	-0.652088	0.755703	-0.131422	0.755740	0.641549	-0.989461	-0.060322	-0.131634
774	2980419982													-9.797678	-0.352847	-0.904258	-0.062330	-0.652561	0.755168	-0.132223	0.755369	0.641821	-0.989258	-0.059846	-0.133366
775	2980428315													-9.656136	-0.648704	-0.853029	-0.063968	-0.653139	0.754531	-0.133065	0.754911	0.642187	-0.989041	-0.059323	-0.135200
776	2980436648													-9.569365	-0.745787	-1.096561	-0.065612	-0.653737	0.753872	-0.133801	0.754441	0.642586	-0.988834	-0.058707	-0.136971
777	2980444981													-9.483057	-0.741762	-1.203591	-0.067223	-0.654332	0.753213	-0.134670	0.753963	0.642965	-0.988608	-0.058214	-0.138802
778	2980453314													-9.529436	-0.732468	-1.209373	-0.068808	-0.654898	0.752578	-0.135555	0.753507	0.643313	-0.988378	-0.057750	-0.140622
779	2980461647													-9.571520	-0.695958	-1.385091	-0.070291	-0.655465	0.751948	-0.136481	0.753043	0.643661	-0.988146	-0.057383	-0.142390
780	2980469980													-9.503488	-0.536444	-1.585402	-0.071651	-0.656038	0.751319	-0.137568	0.752556	0.643999	-0.987897	-0.057215	-0.144171
781	2980478313													-9.582457	-0.537180	-1.535023	-0.073031	-0.656674	0.750631	-0.138843	0.752006	0.644368	-0.987618	-0.057161	-0.146095
782	2980486646													-9.545864	-0.743910	-1.535308	-0.074376	-0.657299	0.749951	-0.140163	0.751459	0.644720	-0.987331	-0.057164	-0.148019
783	2980494979													-9.427850	-0.862700	-1.589048	-0.075645	-0.657741	0.749437	-0.141636	0.751057	0.644866	-0.987024	-0.057366	-0.149974
784	2980503312													-9.387507	-0.753439	-1.777423	-0.076821	-0.658082	0.749018	-0.143142	0.750735	0.644909	-0.986716	-0.057673	-0.151871
785	2980511645													-9.443836	-0.544037	-1.568501	-0.077937	-0.658539	0.748500	-0.144944	0.750291	0.645023	-0.986366	-0.058220	-0.153927
786	2980519978													-9.441190	-0.468465	-1.662059	-0.078913	-0.659388	0.747650	-0.147066	0.749483	0.645482	-0.985974	-0.059017	-0.156118
787	2980528311													-9.257004	-0.832630	-2.036328	-0.079779	-0.660249	0.746797	-0.149347	0.748646	0.645930	-0.985561	-0.060000	-0.158332
788	2980536644													-9.220945	-0.894012	-2.087910	-0.080543	-0.661274	0.745808	-0.151845	0.747646	0.646505	-0.985117	-0.061176	-0.160629
789	2980544977													-9.226423	-0.715118	-2.177723	-0.081186	-0.662271	0.744853	-0.154537	0.746646	0.647022	-0.984646	-0.062579	-0.162963
790	2980553310													-9.263011	-0.624661	-2.256817	-0.081812	-0.663491	0.743698	-0.157327	0.745441	0.647739	-0.984152	-0.064011	-0.165371
791	2980561643													-9.340954	-0.773532	-2.326268	-0.082425	-0.664748	0.742507	-0.160247	0.744188	0.648464	-0.983630	-0.065535	-0.167863
792	2980569976													-9.388194	-0.996768	-2.070023	-0.083125	-0.665917	0.741381	-0.163072	0.743017	0.649102	-0.983106	-0.066942	-0.170355
793	2980578309													-9.542346	-1.401959	-1.781293	-0.083823	-0.666804	0.740504	-0.165801	0.742093	0.649467	-0.982590	-0.068336	-0.172761
794	2980586642													-9.700542	-1.614794	-1.780070	-0.084541	-0.667361	0.739920	-0.168300	0.741473	0.649533	-0.982104	-0.069616	-0.175002
795	2980594975													-9.674829	-1.708291	-1.778453	-0.085402	-0.667406	0.739781	-0.170758	0.741312	0.649075	-0.981605	-0.070891	-0.177275
796	2980603308													-9.673514	-1.716877	-1.803329	-0.086355	-0.667287	0.739778	-0.173293	0.741293	0.648425	-0.981077	-0.072203	-0.179650
797	2980611641													-9.772166	-1.462473	-1.837296	-0.087254	-0.667219	0.739734	-0.175685	0.741233	0.647849	-0.980572	-0.073432	-0.181896
798	2980619974													-9.621943	-1.420707	-2.127146	-0.088303	-0.667182	0.739643	-0.177824	0.741174	0.647333	-0.980092	-0.074365	-0.184089
799	2980628307													-9.675531	-1.594164	-1.976779	-0.089466	-0.667225	0.739463	-0.179944	0.741051	0.646887	-0.979600	-0.075188	-0.186362
800	2980636640													-9.678362	-1.641693	-1.790674	-0.090743	-0.667249	0.739287	-0.181780	0.740976	0.646460	-0.979143	-0.075726	-0.188531
801	2980644973													-9.740416	-1.648348	-1.852860	-0.092129	-0.667239	0.739124	-0.183366	0.740955	0.646036	-0.978718	-0.076011	-0.190612
802	2980653306													-9.812276	-1.530582	-1.785909	-0.093504	-0.667069	0.739104	-0.184875	0.741079	0.645463	-0.978304	-0.076289	-0.192618
803	2980661639													-9.768752	-1.341895	-1.804649	-0.094898	-0.666837	0.739136	-0.186236	0.741271	0.644852	-0.977911	-0.076458	-0.194534
804	2980669972													-9.657965	-1.187096	-1.915477	-0.096443	-0.666669	0.739088	-0.187328	0.741438	0.644344	-0.977552	-0.076309	-0.196392
805	2980678305													-9.626519	-1.042644	-1.964634	-0.098036	-0.666525	0.739008	-0.188321	0.741593	0.643875	-0.977202	-0.076048	-0.198224
806	2980686638													-9.725673	-1.104232	-1.871128	-0.099713	-0.666134	0.739137	-0.189048	0.741991	0.643203	-0.976892	-0.075596	-0.199917
807	2980694971													-9.847491	-1.069975	-1.860976	-0.101340	-0.665621	0.739378	-0.189639	0.742501	0.642440	-0.976610	-0.075110	-0.201473
808	2980703304													-9.866253	-0.636963	-1.956190	-0.102855	-0.665204	0.739543	-0.190211	0.742920	0.641787	-0.976340	-0.074658	-0.202942
809	2980711637													-9.736000	-0.324043	-1.854909	-0.104428	-0.665037	0.739473	-0.190748	0.743127	0.641387	-0.976069	-0.074075	-0.204458
810	2980719970													-9.674459	-0.385738	-1.653927	-0.106129	-0.665127	0.739150	-0.191131	0.743132	0.641267	-0.975810	-0.073217	-0.205994
811	2980728303													-9.744596	-0.477630	-1.833857	-0.107676	-0.665470	0.738618	-0.191535	0.742905	0.641410	-0.975562	-0.072407	-0.207453
812	2980736636													-9.826082	-0.528833	-1.897546	-0.109218	-0.666017	0.737898	-0.191865	0.742504	0.641776	-0.975325	-0.071483	-0.208880
813	2980744969													-9.775372	-0.583243	-2.056035	-0.110663	-0.666575	0.737178	-0.192252	0.742081	0.642149	-0.975086	-0.070662	-0.210271
814	2980753302													-9.632486	-0.748312	-2.136227	-0.112202	-0.666964	0.736593	-0.192502	0.741820	0.642375	-0.974861	-0.069720	-0.211626
815	2980761635													-9.741400	-0.759954	-2.047950	-0.113635	-0.666984	0.736356	-0.192626	0.741884	0.642265	-0.974670	-0.068858	-0.212782
816	2980769968													-9.793341	-0.351462	-2.298546	-0.114775	-0.667149	0.736029	-0.192765	0.741800	0.642320	-0.974509	-0.068158	-0.213743
817	2980778301													-9.738185	0.263370	-2.454165	-0.115854	-0.667293	0.735730	-0.192701	0.741744	0.642403	-0.974394	-0.067350	-0.214522
818	2980786634													-9.566999	0.380808	-2.774657	-0.116846	-0.668384	0.734581	-0.192772	0.740844	0.643420	-0.974262	-0.066426	-0.215410
819	2980794967													-9.580588	0.053955	-2.623137	-0.118174	-0.669081	0.733734	-0.192590	0.740324	0.644073	-0.974138	-0.065197	-0.216345
820	2980803300													-9.670382	-0.177700	-2.376439	-0.119383	-0.669967	0.732730	-0.192427	0.739627	0.644922	-0.974022	-0.064004	-0.217218
821	2980811633													-9.639400	-0.300397	-2.374653	-0.120654	-0.670231	0.732279	-0.192064	0.739490	0.645186	-0.973937	-0.062800	-0.217950
822	2980819966													-9.568892	-0.386767	-2.321320	-0.121778	-0.670425	0.731916	-0.191837	0.739398	0.645360	-0.973842	-0.061818	-0.218655
823	2980828299													-9.448352	-0.345440	-2.240226	-0.122715	-0.670478	0.731710	-0.191677	0.739413	0.645390	-0.973756	-0.061053	-0.219252
824	2980836632													-9.448343	-0.274068	-2.023741	-0.123477	-0.670848	0.731243	-0.191717	0.739126	0.645707	-0.973652	-0.060462	-0.219878
825	2980844965													-9.383089	-0.174907	-2.347745	-0.124344	-0.671168	0.730802	-0.191778	0.738887	0.645962	-0.973530	-0.059831	-0.220591
826	2980853298													-9.437880	-0.461436	-2.160497	-0.125113	-0.672128	0.729788	-0.192065	0.738062	0.646820	-0.973374	-0.059241	-0.221434
827	2980861631													-9.644799	-0.687537	-2.149605	-0.125864	-0.672720	0.729113	-0.192195	0.737569	0.647343	-0.973252	-0.058654	-0.222127
828	2980869964													-9.622336	-0.928320	-2.278741	-0.126501	-0.673562	0.728225	-0.192365	0.736844	0.648117	-0.973136	-0.058097	-0.222781
829	2980878297													-9.678250	-1.181967	-2.113762	-0.127164	-0.673991	0.727712	-0.192325	0.736499	0.648522	-0.973057	-0.057488	-0.223282
830	2980886630													-9.691967	-1.188900	-2.163263	-0.127649	-0.674501	0.727154	-0.192241	0.736074	0.649028	-0.973010	-0.056941	-0.223627
