// Start Time: Unknown
// Update Rate: 100.0Hz
//Filter Profile: human (46.1)
// Option Flags: AHS Disabled ICC Disabled
// Firmware Version: 4.0.2
PacketCounter	SampleTimeFine	Year	Month	Day	Second	UTC_Nano	UTC_Year	UTC_Month	UTC_Day	UTC_Hour	UTC_Minute	UTC_Second	UTC_Valid	Acc_X	Acc_Y	Acc_Z	Mat[1][1]	Mat[1][2]	Mat[1][3]	Mat[2][1]	Mat[2][2]	Mat[2][3]	Mat[3][1]	Mat[3][2]	Mat[3][3]
0	2974023062													0.000000	0.000000	0.000000	-0.721560	-0.692346	-0.003031	-0.692338	0.721566	-0.003199	0.004401	-0.000210	-0.999990
1	2974031395													0.060492	0.015944	-9.653234	-0.721541	-0.692365	-0.003006	-0.692358	0.721548	-0.003108	0.004321	-0.000161	-0.999991
2	2974039728													0.053639	0.018047	-9.634893	-0.721534	-0.692373	-0.002952	-0.692366	0.721540	-0.003033	0.004230	-0.000145	-0.999991
3	2974048061													0.046536	0.026780	-9.652003	-0.721344	-0.692569	-0.003351	-0.692562	0.721351	-0.003223	0.004650	-0.000004	-0.999989
4	2974056394													0.051908	-0.013555	-9.651917	-0.721340	-0.692574	-0.003310	-0.692566	0.721347	-0.003142	0.004564	0.000026	-0.999990
5	2974064727													0.046243	-0.000522	-9.643905	-0.720989	-0.692937	-0.003696	-0.692931	0.720998	-0.002993	0.004739	0.000403	-0.999989
6	2974073060													0.056829	0.008147	-9.654614	-0.720983	-0.692943	-0.003657	-0.692937	0.720992	-0.002915	0.004657	0.000433	-0.999989
7	2974081393													0.031594	-0.006559	-9.663863	-0.720818	-0.693114	-0.003755	-0.693108	0.720828	-0.002892	0.004711	0.000517	-0.999989
8	2974089726													0.057280	0.016194	-9.665737	-0.720812	-0.693120	-0.003709	-0.693115	0.720822	-0.002819	0.004627	0.000539	-0.999989
9	2974098059													0.059948	0.033547	-9.654243	-0.720851	-0.693080	-0.003716	-0.693075	0.720860	-0.002730	0.004570	0.000607	-0.999989
10	2974106392													0.045971	0.013032	-9.663792	-0.720840	-0.693092	-0.003697	-0.693087	0.720849	-0.002643	0.004497	0.000657	-0.999990
11	2974114725													0.066543	-0.005472	-9.638371	-0.720815	-0.693118	-0.003787	-0.693113	0.720824	-0.002561	0.004505	0.000779	-0.999990
12	2974123058													0.064354	-0.007546	-9.644464	-0.720804	-0.693129	-0.003751	-0.693125	0.720813	-0.002483	0.004425	0.000810	-0.999990
13	2974131391													0.043954	0.010479	-9.630581	-0.720892	-0.693036	-0.003815	-0.693033	0.720902	-0.002417	0.004425	0.000901	-0.999990
14	2974139724													0.032238	-0.005608	-9.651159	-0.720891	-0.693039	-0.003770	-0.693035	0.720900	-0.002343	0.004342	0.000924	-0.999990
15	2974148057													0.034369	-0.004921	-9.657697	-0.720924	-0.693004	-0.003802	-0.693001	0.720933	-0.002307	0.004340	0.000971	-0.999990
16	2974156390													0.062087	0.006023	-9.619679	-0.720912	-0.693016	-0.003768	-0.693014	0.720921	-0.002218	0.004254	0.001013	-0.999990
17	2974164723													0.051136	0.004707	-9.632741	-0.720994	-0.692931	-0.003749	-0.692928	0.721003	-0.002167	0.004204	0.001035	-0.999991
18	2974173056													0.054154	0.021674	-9.653062	-0.720992	-0.692933	-0.003716	-0.692931	0.721001	-0.002076	0.004118	0.001078	-0.999991
19	2974181389													0.049247	0.021659	-9.627297	-0.721073	-0.692849	-0.003703	-0.692847	0.721082	-0.002043	0.004085	0.001093	-0.999991
20	2974189722													0.041773	0.030636	-9.664536	-0.721068	-0.692854	-0.003679	-0.692852	0.721077	-0.001948	0.004002	0.001145	-0.999991
21	2974198055													0.048418	0.014563	-9.655416	-0.721089	-0.692833	-0.003675	-0.692831	0.721097	-0.001896	0.003964	0.001179	-0.999991
22	2974206388													0.049891	0.005501	-9.652812	-0.721080	-0.692843	-0.003623	-0.692841	0.721088	-0.001812	0.003868	0.001204	-0.999992
23	2974214721													0.050892	0.019534	-9.631468	-0.721101	-0.692821	-0.003621	-0.692820	0.721109	-0.001758	0.003829	0.001241	-0.999992
24	2974223054													0.036773	0.015035	-9.649457	-0.721091	-0.692831	-0.003575	-0.692830	0.721099	-0.001682	0.003743	0.001264	-0.999992
25	2974231387													0.058303	-0.012153	-9.635231	-0.721085	-0.692837	-0.003566	-0.692837	0.721093	-0.001605	0.003684	0.001313	-0.999992
26	2974239720													0.046143	-0.006538	-9.661387	-0.721081	-0.692841	-0.003533	-0.692841	0.721089	-0.001527	0.003606	0.001347	-0.999993
27	2974248053													0.042688	-0.012081	-9.640666	-0.721068	-0.692856	-0.003526	-0.692855	0.721075	-0.001480	0.003568	0.001375	-0.999993
28	2974256386													0.038775	0.018468	-9.644456	-0.721063	-0.692861	-0.003487	-0.692861	0.721070	-0.001396	0.003481	0.001409	-0.999993
29	2974264719													0.068202	0.017968	-9.646145	-0.721105	-0.692817	-0.003464	-0.692817	0.721112	-0.001350	0.003433	0.001426	-0.999993
30	2974273052													0.031766	0.009142	-9.638148	-0.721099	-0.692824	-0.003426	-0.692824	0.721106	-0.001256	0.003341	0.001468	-0.999993
31	2974281385													0.050442	-0.002618	-9.649106	-0.721041	-0.692884	-0.003410	-0.692885	0.721047	-0.001228	0.003309	0.001478	-0.999993
32	2974289718													0.042409	0.002761	-9.636238	-0.721037	-0.692888	-0.003366	-0.692889	0.721043	-0.001131	0.003210	0.001517	-0.999994
33	2974298051													0.060763	-0.007761	-9.626046	-0.721090	-0.692834	-0.003348	-0.692835	0.721096	-0.001080	0.003163	0.001541	-0.999994
34	2974306384													0.046279	0.023576	-9.654736	-0.721078	-0.692846	-0.003306	-0.692848	0.721083	-0.000985	0.003067	0.001581	-0.999994
35	2974314717													0.046930	0.028769	-9.631748	-0.721053	-0.692872	-0.003287	-0.692873	0.721059	-0.000952	0.003029	0.001591	-0.999994
36	2974323050													0.038046	0.003855	-9.648763	-0.721047	-0.692879	-0.003241	-0.692880	0.721052	-0.000884	0.002949	0.001608	-0.999994
37	2974331383													0.048804	0.006502	-9.648490	-0.720981	-0.692947	-0.003231	-0.692949	0.720986	-0.000841	0.002912	0.001633	-0.999994
38	2974339716													0.061386	-0.003634	-9.649635	-0.720968	-0.692961	-0.003186	-0.692962	0.720973	-0.000760	0.002823	0.001659	-0.999995
39	2974348049													0.060349	0.009728	-9.638749	-0.720972	-0.692957	-0.003172	-0.692959	0.720977	-0.000715	0.002782	0.001683	-0.999995
40	2974356382													0.059275	0.010772	-9.661022	-0.720966	-0.692963	-0.003134	-0.692965	0.720971	-0.000632	0.002698	0.001716	-0.999995
41	2974364715													0.045499	0.021759	-9.639679	-0.720949	-0.692981	-0.003127	-0.692983	0.720954	-0.000590	0.002663	0.001742	-0.999995
42	2974373048													0.065541	0.023240	-9.647289	-0.720950	-0.692980	-0.003103	-0.692982	0.720955	-0.000491	0.002577	0.001796	-0.999995
43	2974381381													0.056608	0.027467	-9.636403	-0.720956	-0.692973	-0.003095	-0.692976	0.720961	-0.000459	0.002550	0.001814	-0.999995
44	2974389714													0.061801	0.014971	-9.649707	-0.720951	-0.692979	-0.003062	-0.692982	0.720955	-0.000383	0.002473	0.001846	-0.999995
45	2974398047													0.042459	0.018605	-9.639250	-0.720889	-0.693044	-0.003057	-0.693047	0.720893	-0.000348	0.002445	0.001867	-0.999995
46	2974406380													0.038554	0.024470	-9.643627	-0.720886	-0.693047	-0.003019	-0.693050	0.720890	-0.000277	0.002368	0.001893	-0.999995
47	2974414713													0.050821	0.005214	-9.643120	-0.721090	-0.692835	-0.003028	-0.692838	0.721093	-0.000225	0.002340	0.001936	-0.999995
48	2974423046													0.056608	-0.003762	-9.643944	-0.721082	-0.692843	-0.003016	-0.692846	0.721086	-0.000142	0.002273	0.001988	-0.999995
49	2974431379													0.052674	0.016080	-9.656595	-0.721005	-0.692923	-0.003033	-0.692926	0.721008	-0.000090	0.002250	0.002037	-0.999995
50	2974439712													0.050392	-0.000243	-9.646925	-0.720996	-0.692933	-0.002997	-0.692936	0.720999	0.000003	0.002158	0.002079	-0.999996
51	2974448045													0.053367	0.004864	-9.648477	-0.720984	-0.692945	-0.002987	-0.692949	0.720987	0.000033	0.002131	0.002094	-0.999996
52	2974456378													0.059991	-0.011480	-9.639336	-0.720978	-0.692951	-0.002948	-0.692955	0.720981	0.000122	0.002041	0.002131	-0.999996
53	2974464711													0.044061	-0.000051	-9.652925	-0.720814	-0.693122	-0.002954	-0.693126	0.720817	0.000160	0.002018	0.002162	-0.999996
54	2974473044													0.040185	0.018833	-9.637948	-0.720800	-0.693137	-0.002932	-0.693140	0.720803	0.000252	0.001939	0.002214	-0.999996
55	2974481377													0.065277	0.026487	-9.633498	-0.720821	-0.693115	-0.002926	-0.693119	0.720824	0.000292	0.001907	0.002239	-0.999996
56	2974489710													0.074762	0.015700	-9.622748	-0.720820	-0.693116	-0.002892	-0.693119	0.720823	0.000371	0.001827	0.002272	-0.999996
57	2974498043													0.063424	0.011144	-9.645129	-0.720850	-0.693085	-0.002898	-0.693089	0.720852	0.000406	0.001808	0.002301	-0.999996
58	2974506376													0.045170	-0.009628	-9.654421	-0.720847	-0.693089	-0.002850	-0.693092	0.720849	0.000481	0.001721	0.002322	-0.999996
59	2974514709													0.036945	-0.000579	-9.666196	-0.721059	-0.692868	-0.002819	-0.692872	0.721060	0.000501	0.001686	0.002315	-0.999996
60	2974523042													0.041601	-0.018069	-9.650515	-0.721052	-0.692875	-0.002783	-0.692879	0.721054	0.000598	0.001592	0.002360	-0.999996
61	2974531375													0.054676	0.010658	-9.632913	-0.721073	-0.692853	-0.002764	-0.692857	0.721075	0.000619	0.001565	0.002361	-0.999996
62	2974539708													0.043239	0.013483	-9.638814	-0.721061	-0.692866	-0.002712	-0.692870	0.721062	0.000701	0.001469	0.002385	-0.999996
63	2974548041													0.063532	0.015157	-9.640087	-0.721130	-0.692794	-0.002706	-0.692798	0.721131	0.000733	0.001444	0.002403	-0.999996
64	2974556374													0.059612	-0.000350	-9.655845	-0.721123	-0.692802	-0.002669	-0.692806	0.721124	0.000813	0.001361	0.002436	-0.999996
65	2974564707													0.082944	0.008927	-9.641847	-0.721209	-0.692713	-0.002652	-0.692716	0.721210	0.000829	0.001338	0.002435	-0.999996
66	2974573040													0.068632	0.022446	-9.640817	-0.721205	-0.692717	-0.002607	-0.692721	0.721205	0.000904	0.001254	0.002458	-0.999996
67	2974581373													0.044820	0.012539	-9.635637	-0.721002	-0.692928	-0.002600	-0.692932	0.721003	0.000927	0.001233	0.002470	-0.999996
68	2974589706													0.043361	0.001331	-9.645458	-0.720999	-0.692931	-0.002562	-0.692935	0.720999	0.001014	0.001144	0.002506	-0.999996
69	2974598039													0.042609	0.026372	-9.636380	-0.721004	-0.692927	-0.002554	-0.692930	0.721004	0.001037	0.001123	0.002517	-0.999996
70	2974606372													0.055392	0.003055	-9.639873	-0.720996	-0.692934	-0.002504	-0.692938	0.720996	0.001132	0.001021	0.002552	-0.999996
71	2974614705													0.061843	0.012596	-9.654643	-0.720840	-0.693097	-0.002503	-0.693100	0.720840	0.001151	0.001006	0.002564	-0.999996
72	2974623038													0.055792	0.014992	-9.672482	-0.720841	-0.693097	-0.002466	-0.693100	0.720840	0.001235	0.000921	0.002600	-0.999996
73	2974631371													0.061450	0.014892	-9.632462	-0.720924	-0.693010	-0.002455	-0.693014	0.720923	0.001253	0.000902	0.002604	-0.999996
74	2974639704													0.050335	-0.003956	-9.632755	-0.720916	-0.693018	-0.002414	-0.693021	0.720916	0.001340	0.000812	0.002639	-0.999996
75	2974648037													0.037231	0.006838	-9.636925	-0.721028	-0.692902	-0.002406	-0.692906	0.721027	0.001360	0.000792	0.002648	-0.999996
76	2974656370													0.057151	0.019327	-9.652655	-0.721015	-0.692916	-0.002373	-0.692920	0.721013	0.001449	0.000707	0.002689	-0.999996
77	2974664703													0.035686	0.013304	-9.630874	-0.720862	-0.693075	-0.002368	-0.693079	0.720861	0.001467	0.000691	0.002699	-0.999996
78	2974673036													0.044670	0.021165	-9.631875	-0.720857	-0.693080	-0.002330	-0.693084	0.720856	0.001556	0.000601	0.002737	-0.999996
79	2974681369													0.060377	0.001151	-9.647417	-0.720832	-0.693106	-0.002335	-0.693110	0.720831	0.001584	0.000586	0.002761	-0.999996
80	2974689702													0.055470	0.026988	-9.645566	-0.720821	-0.693117	-0.002281	-0.693121	0.720819	0.001672	0.000485	0.002786	-0.999996
81	2974698035													0.056450	0.014220	-9.638456	-0.720898	-0.693038	-0.002275	-0.693041	0.720896	0.001705	0.000459	0.002806	-0.999996
82	2974706368													0.058289	0.017031	-9.634486	-0.720900	-0.693035	-0.002227	-0.693039	0.720898	0.001784	0.000369	0.002830	-0.999996
83	2974714701													0.041200	0.007139	-9.654106	-0.720929	-0.693006	-0.002219	-0.693009	0.720927	0.001802	0.000351	0.002837	-0.999996
84	2974723034													0.045027	0.007110	-9.632040	-0.720925	-0.693010	-0.002177	-0.693013	0.720922	0.001892	0.000259	0.002872	-0.999996
85	2974731367													0.042323	0.015522	-9.638785	-0.720713	-0.693230	-0.002174	-0.693234	0.720710	0.001912	0.000242	0.002885	-0.999996
86	2974739700													0.054869	0.017166	-9.658697	-0.720703	-0.693241	-0.002137	-0.693244	0.720700	0.001990	0.000161	0.002916	-0.999996
87	2974748033													0.049519	0.027838	-9.647388	-0.720707	-0.693236	-0.002150	-0.693240	0.720704	0.002018	0.000151	0.002945	-0.999996
88	2974756366													0.044741	0.014635	-9.627162	-0.720693	-0.693251	-0.002104	-0.693254	0.720690	0.002093	0.000066	0.002967	-0.999996
89	2974764699													0.055084	-0.002418	-9.630902	-0.720739	-0.693204	-0.002112	-0.693207	0.720735	0.002121	0.000052	0.002992	-0.999996
90	2974773032													0.049741	0.009499	-9.644078	-0.720730	-0.693213	-0.002067	-0.693216	0.720727	0.002190	-0.000028	0.003011	-0.999995
91	2974781365													0.053010	0.023168	-9.650444	-0.720643	-0.693303	-0.002069	-0.693307	0.720639	0.002219	-0.000047	0.003034	-0.999995
92	2974789698													0.061679	0.024921	-9.646782	-0.720632	-0.693315	-0.002015	-0.693317	0.720629	0.002305	-0.000146	0.003058	-0.999995
93	2974798031													0.055256	-0.000901	-9.657518	-0.720643	-0.693304	-0.002021	-0.693307	0.720639	0.002338	-0.000165	0.003086	-0.999995
94	2974806364													0.055964	0.007647	-9.645358	-0.720638	-0.693309	-0.001995	-0.693312	0.720633	0.002445	-0.000258	0.003146	-0.999995
95	2974814697													0.051057	0.000951	-9.646752	-0.720631	-0.693316	-0.002001	-0.693319	0.720626	0.002461	-0.000264	0.003161	-0.999995
96	2974823030													0.045957	-0.000958	-9.651631	-0.720622	-0.693325	-0.001955	-0.693328	0.720618	0.002549	-0.000359	0.003192	-0.999995
97	2974831363													0.047402	-0.005129	-9.632347	-0.720619	-0.693329	-0.001955	-0.693332	0.720614	0.002567	-0.000371	0.003205	-0.999995
98	2974839696													0.049176	0.019978	-9.644650	-0.720614	-0.693334	-0.001927	-0.693336	0.720609	0.002635	-0.000438	0.003235	-0.999995
99	2974848029													0.044762	0.014899	-9.615424	-0.720563	-0.693387	-0.001933	-0.693389	0.720558	0.002658	-0.000450	0.003256	-0.999995
100	2974856362													0.050284	0.006144	-9.633191	-0.720555	-0.693395	-0.001886	-0.693398	0.720550	0.002734	-0.000537	0.003278	-0.999994
101	2974864695													0.050392	0.003519	-9.650015	-0.720539	-0.693412	-0.001878	-0.693415	0.720534	0.002746	-0.000551	0.003281	-0.999994
102	2974873028													0.044069	-0.012624	-9.630581	-0.720528	-0.693423	-0.001845	-0.693425	0.720523	0.002846	-0.000644	0.003330	-0.999994
103	2974881361													0.034827	-0.001717	-9.658340	-0.720434	-0.693521	-0.001836	-0.693523	0.720429	0.002860	-0.000661	0.003334	-0.999994
104	2974889694													0.062080	-0.004113	-9.645924	-0.720422	-0.693534	-0.001801	-0.693536	0.720416	0.002929	-0.000734	0.003359	-0.999994
105	2974898027													0.051515	0.010307	-9.633513	-0.720422	-0.693534	-0.001790	-0.693535	0.720416	0.002937	-0.000747	0.003358	-0.999994
106	2974906360													0.050592	0.010343	-9.628156	-0.720417	-0.693539	-0.001743	-0.693540	0.720412	0.003022	-0.000840	0.003386	-0.999994
107	2974914693													0.047609	-0.012224	-9.630795	-0.720439	-0.693516	-0.001730	-0.693518	0.720433	0.003046	-0.000866	0.003395	-0.999994
108	2974923026													0.043396	0.007454	-9.643484	-0.720428	-0.693528	-0.001692	-0.693529	0.720422	0.003135	-0.000955	0.003432	-0.999994
109	2974931359													0.051965	-0.004385	-9.648504	-0.720560	-0.693391	-0.001691	-0.693392	0.720553	0.003156	-0.000970	0.003446	-0.999994
110	2974939692													0.063718	0.002947	-9.640079	-0.720549	-0.693402	-0.001659	-0.693404	0.720542	0.003241	-0.001052	0.003486	-0.999993
111	2974948025													0.050435	0.021530	-9.644751	-0.720372	-0.693586	-0.001644	-0.693587	0.720365	0.003244	-0.001066	0.003477	-0.999993
112	2974956358													0.033139	0.015722	-9.640230	-0.720362	-0.693596	-0.001602	-0.693597	0.720356	0.003313	-0.001144	0.003498	-0.999993
113	2974964691													0.042102	0.009942	-9.649915	-0.720430	-0.693526	-0.001591	-0.693527	0.720423	0.003333	-0.001166	0.003505	-0.999993
114	2974973024													0.043890	0.009470	-9.635122	-0.720428	-0.693528	-0.001544	-0.693529	0.720421	0.003413	-0.001255	0.003530	-0.999993
115	2974981357													0.054641	0.009606	-9.634672	-0.720455	-0.693500	-0.001540	-0.693501	0.720448	0.003420	-0.001262	0.003532	-0.999993
116	2974989690													0.061093	0.010301	-9.644630	-0.720441	-0.693514	-0.001507	-0.693515	0.720434	0.003509	-0.001348	0.003573	-0.999993
117	2974998023													0.056343	-0.004499	-9.648692	-0.720505	-0.693448	-0.001502	-0.693449	0.720498	0.003507	-0.001350	0.003568	-0.999993
118	2975006356													0.074597	-0.009571	-9.652575	-0.720501	-0.693453	-0.001469	-0.693453	0.720493	0.003591	-0.001431	0.003606	-0.999992
119	2975014689													0.061035	0.004942	-9.638941	-0.720541	-0.693410	-0.001465	-0.693410	0.720534	0.003600	-0.001440	0.003610	-0.999992
120	2975023022													0.041851	0.004106	-9.638878	-0.720530	-0.693422	-0.001428	-0.693422	0.720522	0.003692	-0.001531	0.003650	-0.999992
121	2975031355													0.041937	0.012382	-9.650007	-0.720618	-0.693330	-0.001436	-0.693330	0.720611	0.003701	-0.001531	0.003663	-0.999992
122	2975039688													0.040435	0.005987	-9.646317	-0.720608	-0.693341	-0.001401	-0.693341	0.720600	0.003773	-0.001606	0.003690	-0.999992
123	2975048021													0.063653	0.012868	-9.649106	-0.720610	-0.693339	-0.001399	-0.693338	0.720602	0.003760	-0.001599	0.003680	-0.999992
124	2975056354													0.064032	0.000758	-9.630307	-0.720594	-0.693356	-0.001363	-0.693355	0.720586	0.003849	-0.001686	0.003718	-0.999992
125	2975064687													0.060828	0.010751	-9.632884	-0.720554	-0.693398	-0.001380	-0.693397	0.720545	0.003859	-0.001682	0.003737	-0.999992
126	2975073020													0.055399	0.003176	-9.646932	-0.720547	-0.693404	-0.001332	-0.693403	0.720539	0.003929	-0.001765	0.003755	-0.999991
127	2975081353													0.042967	0.008619	-9.630667	-0.720479	-0.693475	-0.001337	-0.693474	0.720471	0.003932	-0.001764	0.003761	-0.999991
128	2975089686													0.060863	0.008640	-9.638019	-0.720470	-0.693485	-0.001301	-0.693484	0.720461	0.004012	-0.001845	0.003793	-0.999991
129	2975098019													0.049240	0.013962	-9.647261	-0.720453	-0.693503	-0.001295	-0.693502	0.720444	0.004015	-0.001852	0.003790	-0.999991
130	2975106352													0.051457	0.013848	-9.626154	-0.720447	-0.693509	-0.001254	-0.693507	0.720438	0.004107	-0.001945	0.003829	-0.999991
131	2975114685													0.038203	0.011595	-9.652855	-0.720408	-0.693549	-0.001258	-0.693548	0.720399	0.004116	-0.001948	0.003838	-0.999991
132	2975123018													0.057358	0.021222	-9.632253	-0.720397	-0.693561	-0.001224	-0.693559	0.720387	0.004193	-0.002026	0.003870	-0.999990
133	2975131351													0.036429	0.001166	-9.647820	-0.720335	-0.693625	-0.001224	-0.693623	0.720326	0.004203	-0.002034	0.003876	-0.999990
134	2975139684													0.045392	0.023032	-9.653956	-0.720333	-0.693627	-0.001180	-0.693625	0.720323	0.004276	-0.002116	0.003898	-0.999990
135	2975148017													0.057108	0.022009	-9.651360	-0.720417	-0.693540	-0.001183	-0.693538	0.720408	0.004279	-0.002116	0.003903	-0.999990
136	2975156350													0.059984	0.032238	-9.653234	-0.720412	-0.693546	-0.001153	-0.693543	0.720402	0.004350	-0.002186	0.003934	-0.999990
137	2975164683													0.048732	0.028282	-9.623698	-0.720327	-0.693634	-0.001157	-0.693632	0.720317	0.004346	-0.002181	0.003933	-0.999990
138	2975173016													0.042366	0.021666	-9.639885	-0.720320	-0.693641	-0.001107	-0.693638	0.720310	0.004427	-0.002273	0.003956	-0.999990
139	2975181349													0.031043	0.026866	-9.628984	-0.720279	-0.693683	-0.001118	-0.693680	0.720269	0.004420	-0.002261	0.003959	-0.999990
140	2975189682													0.045657	0.012904	-9.650101	-0.720271	-0.693692	-0.001061	-0.693689	0.720260	0.004497	-0.002356	0.003975	-0.999989
141	2975198015													0.047552	0.012882	-9.645967	-0.720332	-0.693629	-0.001066	-0.693625	0.720322	0.004510	-0.002360	0.003988	-0.999989
142	2975206348													0.057351	-0.008226	-9.634529	-0.720325	-0.693636	-0.001026	-0.693633	0.720314	0.004575	-0.002434	0.004007	-0.999989
143	2975214681													0.051415	-0.009627	-9.627741	-0.720266	-0.693697	-0.001020	-0.693693	0.720256	0.004580	-0.002443	0.004006	-0.999989
144	2975223014													0.062573	0.000622	-9.653419	-0.720262	-0.693702	-0.000993	-0.693698	0.720251	0.004657	-0.002516	0.004043	-0.999989
145	2975231347													0.068024	-0.026043	-9.644557	-0.720212	-0.693754	-0.000993	-0.693750	0.720201	0.004653	-0.002512	0.004040	-0.999989
146	2975239680													0.061879	0.002511	-9.637576	-0.720203	-0.693763	-0.000963	-0.693759	0.720192	0.004731	-0.002589	0.004076	-0.999988
147	2975248013													0.061615	0.009714	-9.644371	-0.720208	-0.693758	-0.000976	-0.693754	0.720197	0.004721	-0.002573	0.004077	-0.999988
148	2975256346													0.065878	0.019191	-9.637784	-0.720207	-0.693759	-0.000943	-0.693754	0.720196	0.004798	-0.002649	0.004109	-0.999988
149	2975264679													0.043854	0.012954	-9.639343	-0.720122	-0.693847	-0.000943	-0.693842	0.720111	0.004800	-0.002652	0.004111	-0.999988
150	2975273012													0.036701	0.028762	-9.629351	-0.720104	-0.693866	-0.000907	-0.693861	0.720092	0.004872	-0.002728	0.004138	-0.999988
151	2975281345													0.046501	0.033060	-9.645022	-0.720185	-0.693782	-0.000893	-0.693777	0.720173	0.004862	-0.002730	0.004121	-0.999988
152	2975289678													0.056393	0.028433	-9.635723	-0.720174	-0.693793	-0.000854	-0.693787	0.720163	0.004939	-0.002812	0.004149	-0.999987
153	2975298011													0.058811	0.026795	-9.638928	-0.720136	-0.693832	-0.000855	-0.693827	0.720125	0.004924	-0.002801	0.004140	-0.999988
154	2975306344													0.048067	0.012002	-9.657525	-0.720129	-0.693839	-0.000816	-0.693834	0.720118	0.005003	-0.002884	0.004169	-0.999987
155	2975314677													0.045700	-0.004992	-9.634015	-0.720111	-0.693858	-0.000827	-0.693853	0.720099	0.004991	-0.002867	0.004167	-0.999987
156	2975323010													0.042152	-0.015450	-9.629951	-0.720107	-0.693863	-0.000777	-0.693857	0.720095	0.005073	-0.002960	0.004192	-0.999987
157	2975331343													0.031694	0.012060	-9.657690	-0.720162	-0.693805	-0.000766	-0.693799	0.720151	0.005082	-0.002974	0.004191	-0.999987
158	2975339676													0.030135	0.007482	-9.623356	-0.720154	-0.693814	-0.000727	-0.693808	0.720142	0.005165	-0.003060	0.004223	-0.999986
159	2975348009													0.063396	-0.001752	-9.640502	-0.720077	-0.693893	-0.000732	-0.693887	0.720065	0.005168	-0.003059	0.004229	-0.999986
160	2975356342													0.050921	-0.013927	-9.660230	-0.720074	-0.693897	-0.000690	-0.693891	0.720061	0.005259	-0.003152	0.004265	-0.999986
161	2975364675													0.040521	-0.004757	-9.630545	-0.720052	-0.693920	-0.000693	-0.693913	0.720040	0.005255	-0.003148	0.004265	-0.999986
162	2975373008													0.043010	0.016187	-9.646889	-0.720040	-0.693932	-0.000654	-0.693925	0.720027	0.005339	-0.003234	0.004298	-0.999986
163	2975381341													0.032932	0.006831	-9.622391	-0.720089	-0.693882	-0.000673	-0.693875	0.720076	0.005352	-0.003229	0.004321	-0.999985
164	2975389674													0.044441	0.009592	-9.647575	-0.720089	-0.693881	-0.000637	-0.693873	0.720076	0.005438	-0.003314	0.004358	-0.999985
165	2975398007													0.038475	0.016516	-9.634965	-0.720012	-0.693961	-0.000633	-0.693953	0.720000	0.005426	-0.003310	0.004347	-0.999985
166	2975406340													0.059462	0.003712	-9.659685	-0.720004	-0.693970	-0.000599	-0.693962	0.719991	0.005495	-0.003383	0.004372	-0.999985
167	2975414673													0.047144	0.012467	-9.654270	-0.719933	-0.694044	-0.000589	-0.694036	0.719920	0.005487	-0.003384	0.004360	-0.999985
168	2975423006													0.053603	0.012217	-9.636581	-0.719920	-0.694057	-0.000555	-0.694048	0.719907	0.005577	-0.003471	0.004400	-0.999984
169	2975431339													0.046701	-0.001144	-9.637440	-0.719897	-0.694081	-0.000538	-0.694072	0.719884	0.005571	-0.003479	0.004384	-0.999984
170	2975439672													0.045571	-0.014685	-9.640745	-0.719887	-0.694091	-0.000522	-0.694082	0.719874	0.005647	-0.003543	0.004428	-0.999984
171	2975448005													0.035435	-0.001795	-9.635702	-0.719846	-0.694134	-0.000534	-0.694125	0.719832	0.005640	-0.003530	0.004431	-0.999984
172	2975456338													0.056758	0.001001	-9.621124	-0.719840	-0.694140	-0.000491	-0.694131	0.719826	0.005729	-0.003624	0.004465	-0.999983
173	2975464671													0.048017	-0.023067	-9.645609	-0.719805	-0.694176	-0.000509	-0.694167	0.719792	0.005734	-0.003615	0.004481	-0.999983
174	2975473004													0.047531	0.007725	-9.630589	-0.719801	-0.694180	-0.000482	-0.694170	0.719787	0.005823	-0.003695	0.004527	-0.999983
175	2975481337													0.044684	-0.002854	-9.652018	-0.719922	-0.694055	-0.000492	-0.694045	0.719908	0.005824	-0.003688	0.004534	-0.999983
176	2975489670													0.053367	0.031136	-9.631346	-0.719917	-0.694060	-0.000449	-0.694050	0.719903	0.005920	-0.003785	0.004574	-0.999982
177	2975498003													0.048210	0.007940	-9.644400	-0.719906	-0.694071	-0.000473	-0.694061	0.719892	0.005916	-0.003765	0.004587	-0.999982
178	2975506336													0.027875	0.004835	-9.642012	-0.719898	-0.694080	-0.000441	-0.694069	0.719883	0.006004	-0.003849	0.004628	-0.999982
179	2975514669													0.062694	0.033375	-9.638313	-0.719798	-0.694183	-0.000431	-0.694173	0.719784	0.005989	-0.003847	0.004610	-0.999982
180	2975523002													0.054419	0.025271	-9.634172	-0.719785	-0.694197	-0.000397	-0.694186	0.719770	0.006070	-0.003928	0.004645	-0.999982
181	2975531335													0.056429	0.020064	-9.632870	-0.719723	-0.694261	-0.000394	-0.694250	0.719708	0.006078	-0.003937	0.004648	-0.999981
182	2975539668													0.053582	0.009628	-9.651131	-0.719719	-0.694266	-0.000355	-0.694254	0.719704	0.006153	-0.004016	0.004675	-0.999981
183	2975548001													0.049204	0.011223	-9.640388	-0.719662	-0.694325	-0.000359	-0.694313	0.719647	0.006140	-0.004005	0.004667	-0.999981
184	2975556334													0.045328	0.013462	-9.620159	-0.719654	-0.694333	-0.000317	-0.694321	0.719639	0.006211	-0.004085	0.004690	-0.999981
185	2975564667													0.034234	0.001473	-9.655909	-0.719653	-0.694333	-0.000327	-0.694322	0.719638	0.006201	-0.004070	0.004690	-0.999981
186	2975573000													0.046458	-0.003755	-9.660465	-0.719647	-0.694340	-0.000299	-0.694328	0.719631	0.006287	-0.004150	0.004732	-0.999980
187	2975581333													0.056150	-0.004413	-9.613192	-0.719618	-0.694370	-0.000319	-0.694357	0.719603	0.006293	-0.004140	0.004750	-0.999980
188	2975589666													0.050342	-0.003777	-9.641546	-0.719614	-0.694374	-0.000272	-0.694362	0.719598	0.006366	-0.004225	0.004770	-0.999980
189	2975597999													0.058160	-0.014449	-9.645515	-0.719637	-0.694350	-0.000272	-0.694337	0.719621	0.006373	-0.004229	0.004775	-0.999980
190	2975606332													0.048847	-0.013662	-9.627019	-0.719622	-0.694366	-0.000228	-0.694352	0.719606	0.006449	-0.004314	0.004799	-0.999979
191	2975614665													0.056293	0.013319	-9.631310	-0.719507	-0.694485	-0.000241	-0.694471	0.719491	0.006441	-0.004299	0.004802	-0.999979
192	2975622998													0.044863	0.013569	-9.640244	-0.719500	-0.694492	-0.000208	-0.694478	0.719484	0.006523	-0.004381	0.004838	-0.999979
193	2975631331													0.040943	0.037796	-9.622512	-0.719446	-0.694548	-0.000213	-0.694534	0.719430	0.006503	-0.004363	0.004827	-0.999979
194	2975639664													0.035564	0.016680	-9.642061	-0.719435	-0.694560	-0.000158	-0.694546	0.719419	0.006568	-0.004448	0.004835	-0.999978
195	2975647997													0.059140	0.013640	-9.654807	-0.719427	-0.694568	-0.000148	-0.694554	0.719411	0.006543	-0.004438	0.004810	-0.999979
196	2975656330													0.043368	0.009671	-9.621876	-0.719405	-0.694590	-0.000117	-0.694576	0.719389	0.006630	-0.004521	0.004851	-0.999978
197	2975664663													0.052115	0.003426	-9.620866	-0.719396	-0.694601	-0.000120	-0.694586	0.719379	0.006613	-0.004507	0.004841	-0.999978
198	2975672996													0.036387	0.018025	-9.645372	-0.719385	-0.694612	-0.000084	-0.694597	0.719368	0.006677	-0.004578	0.004862	-0.999978
199	2975681329													0.057151	0.016823	-9.629436	-0.719394	-0.694602	-0.000093	-0.694587	0.719378	0.006662	-0.004560	0.004857	-0.999978
200	2975689662													0.053510	-0.004335	-9.631031	-0.719381	-0.694616	-0.000051	-0.694601	0.719364	0.006737	-0.004643	0.004882	-0.999977
201	2975697995													0.049047	0.008419	-9.628442	-0.719344	-0.694654	-0.000058	-0.694639	0.719327	0.006714	-0.004622	0.004870	-0.999977
202	2975706328													0.058725	0.007117	-9.650086	-0.719333	-0.694665	-0.000019	-0.694649	0.719316	0.006788	-0.004702	0.004896	-0.999977
203	2975714661													0.042352	0.000279	-9.643456	-0.719324	-0.694675	-0.000023	-0.694659	0.719307	0.006773	-0.004688	0.004888	-0.999977
204	2975722994													0.052809	0.016180	-9.640809	-0.719313	-0.694686	0.000003	-0.694670	0.719296	0.006850	-0.004761	0.004925	-0.999977
205	2975731327													0.055399	0.011631	-9.630030	-0.719353	-0.694645	0.000004	-0.694628	0.719336	0.006840	-0.004754	0.004917	-0.999977
206	2975739660													0.050542	0.013290	-9.639416	-0.719346	-0.694652	0.000032	-0.694635	0.719329	0.006906	-0.004821	0.004946	-0.999976
207	2975747993													0.063167	0.008398	-9.637642	-0.719392	-0.694605	0.000016	-0.694588	0.719375	0.006880	-0.004791	0.004938	-0.999976
208	2975756326													0.048375	0.010107	-9.641195	-0.719384	-0.694613	0.000062	-0.694596	0.719367	0.006966	-0.004883	0.004968	-0.999976
209	2975764659													0.048089	0.023254	-9.655830	-0.719417	-0.694578	0.000052	-0.694561	0.719400	0.006943	-0.004860	0.004959	-0.999976
210	2975772992													0.062652	0.005150	-9.638442	-0.719404	-0.694591	0.000088	-0.694574	0.719387	0.007014	-0.004936	0.004985	-0.999975
211	2975781325													0.057337	0.024849	-9.648999	-0.719365	-0.694633	0.000078	-0.694615	0.719347	0.006993	-0.004914	0.004976	-0.999976
212	2975789658													0.046529	0.012303	-9.653949	-0.719352	-0.694646	0.000119	-0.694628	0.719334	0.007084	-0.005007	0.005014	-0.999975
213	2975797991													0.066944	-0.001860	-9.660486	-0.719275	-0.694725	0.000124	-0.694707	0.719258	0.007062	-0.004995	0.004993	-0.999975
214	2975806324													0.061436	0.000172	-9.641224	-0.719274	-0.694727	0.000165	-0.694708	0.719256	0.007130	-0.005072	0.005014	-0.999975
215	2975814657													0.073467	-0.005815	-9.635110	-0.719276	-0.694725	0.000155	-0.694706	0.719258	0.007122	-0.005059	0.005015	-0.999975
216	2975822990													0.045685	0.002625	-9.650085	-0.719259	-0.694742	0.000189	-0.694723	0.719241	0.007208	-0.005144	0.005053	-0.999974
217	2975831323													0.056450	0.002468	-9.635782	-0.719256	-0.694745	0.000166	-0.694726	0.719238	0.007185	-0.005111	0.005052	-0.999974
218	2975839656													0.054898	-0.000944	-9.646073	-0.719246	-0.694756	0.000195	-0.694736	0.719228	0.007271	-0.005192	0.005094	-0.999974
219	2975847989													0.079490	0.014513	-9.658984	-0.719329	-0.694669	0.000181	-0.694650	0.719311	0.007257	-0.005172	0.005094	-0.999974
220	2975856322													0.059540	0.017317	-9.644313	-0.719311	-0.694688	0.000213	-0.694669	0.719293	0.007339	-0.005251	0.005131	-0.999973
221	2975864655													0.059984	0.022782	-9.638328	-0.719230	-0.694772	0.000197	-0.694753	0.719211	0.007320	-0.005228	0.005128	-0.999973
222	2975872988													0.057065	0.005694	-9.638098	-0.719232	-0.694770	0.000224	-0.694749	0.719214	0.007385	-0.005292	0.005156	-0.999973
223	2975881321													0.040056	0.011395	-9.638614	-0.719231	-0.694771	0.000215	-0.694751	0.719213	0.007354	-0.005264	0.005140	-0.999973
224	2975889654													0.052952	0.007289	-9.644328	-0.719218	-0.694784	0.000242	-0.694764	0.719200	0.007437	-0.005341	0.005181	-0.999972
225	2975897987													0.050006	0.011745	-9.632791	-0.719193	-0.694810	0.000240	-0.694790	0.719175	0.007409	-0.005321	0.005162	-0.999973
226	2975906320													0.046679	0.016001	-9.641381	-0.719187	-0.694817	0.000280	-0.694796	0.719168	0.007496	-0.005410	0.005196	-0.999972
227	2975914653													0.050063	-0.003026	-9.633935	-0.719213	-0.694790	0.000277	-0.694769	0.719194	0.007474	-0.005392	0.005183	-0.999972
228	2975922986													0.060420	-0.001123	-9.626131	-0.719198	-0.694805	0.000296	-0.694783	0.719179	0.007559	-0.005465	0.005230	-0.999971
229	2975931319													0.069211	-0.012675	-9.627927	-0.719241	-0.694760	0.000283	-0.694739	0.719222	0.007529	-0.005434	0.005219	-0.999972
230	2975939652													0.045649	0.008304	-9.630187	-0.719235	-0.694767	0.000317	-0.694745	0.719216	0.007614	-0.005518	0.005256	-0.999971
231	2975947985													0.043010	-0.004749	-9.648284	-0.719188	-0.694815	0.000307	-0.694793	0.719169	0.007602	-0.005503	0.005255	-0.999971
232	2975956318													0.059590	0.028211	-9.647075	-0.719181	-0.694822	0.000329	-0.694800	0.719162	0.007663	-0.005562	0.005283	-0.999971
233	2975964651													0.037116	0.017775	-9.633513	-0.719126	-0.694879	0.000318	-0.694857	0.719107	0.007637	-0.005535	0.005271	-0.999971
234	2975972984													0.038575	0.035979	-9.630546	-0.719112	-0.694894	0.000338	-0.694871	0.719093	0.007712	-0.005602	0.005311	-0.999970
235	2975981317													0.041558	0.013998	-9.649384	-0.719137	-0.694868	0.000317	-0.694846	0.719117	0.007685	-0.005568	0.005306	-0.999970
236	2975989650													0.052452	0.035743	-9.637591	-0.719134	-0.694871	0.000355	-0.694848	0.719115	0.007761	-0.005648	0.005335	-0.999970
237	2975997983													0.042059	0.023833	-9.633077	-0.719524	-0.694453	-0.004485	-0.694447	0.719537	-0.003033	0.005333	0.000932	-0.999985
238	2976006316													0.056078	0.003040	-9.638792	-0.719512	-0.694466	-0.004451	-0.694460	0.719525	-0.002955	0.005254	0.000965	-0.999986
239	2976014649													0.037703	0.004134	-9.650623	-0.719577	-0.694398	-0.004457	-0.694393	0.719590	-0.002955	0.005260	0.000968	-0.999986
240	2976022982													0.038883	0.010400	-9.631997	-0.719574	-0.694402	-0.004441	-0.694396	0.719587	-0.002971	0.005259	0.000946	-0.999986
241	2976031315													0.048682	0.019885	-9.644822	-0.719625	-0.694349	-0.004451	-0.694343	0.719638	-0.002965	0.005262	0.000957	-0.999986
242	2976039648													0.056243	0.008991	-9.655087	-0.719616	-0.694358	-0.004462	-0.694352	0.719630	-0.002952	0.005261	0.000974	-0.999986
243	2976047981													0.055420	-0.005257	-9.613771	-0.719632	-0.694341	-0.004467	-0.694336	0.719645	-0.002960	0.005269	0.000971	-0.999986
244	2976056314													0.057172	0.006001	-9.637939	-0.719632	-0.694341	-0.004469	-0.694335	0.719646	-0.002958	0.005270	0.000974	-0.999986
245	2976064647													0.050878	0.007174	-9.634501	-0.719664	-0.694308	-0.004455	-0.694302	0.719677	-0.002954	0.005257	0.000967	-0.999986
246	2976072980													0.064218	0.015472	-9.649543	-0.719658	-0.694315	-0.004450	-0.694309	0.719671	-0.002958	0.005256	0.000960	-0.999986
247	2976081313													0.032038	0.022832	-9.636675	-0.719684	-0.694288	-0.004449	-0.694282	0.719697	-0.002964	0.005260	0.000956	-0.999986
248	2976089646													0.048797	0.004292	-9.646939	-0.719691	-0.694281	-0.004436	-0.694275	0.719704	-0.002972	0.005256	0.000941	-0.999986
249	2976097979													0.053224	0.002875	-9.625853	-0.719710	-0.694261	-0.004425	-0.694255	0.719723	-0.002968	0.005245	0.000936	-0.999986
250	2976106312													0.041587	0.017153	-9.656960	-0.719716	-0.694255	-0.004431	-0.694249	0.719729	-0.002971	0.005252	0.000938	-0.999986
251	2976114645													0.047245	-0.003727	-9.638885	-0.719741	-0.694228	-0.004427	-0.694222	0.719754	-0.002977	0.005253	0.000931	-0.999986
252	2976122978													0.045521	0.000272	-9.632684	-0.719745	-0.694225	-0.004421	-0.694219	0.719758	-0.002958	0.005236	0.000940	-0.999986
253	2976131311													0.049305	-0.006924	-9.623928	-0.719778	-0.694191	-0.004428	-0.694185	0.719791	-0.002948	0.005234	0.000952	-0.999986
254	2976139644													0.052352	0.003977	-9.636467	-0.719779	-0.694189	-0.004437	-0.694183	0.719792	-0.002945	0.005238	0.000960	-0.999986
255	2976147977													0.060020	0.017761	-9.646259	-0.719778	-0.694190	-0.004436	-0.694185	0.719791	-0.002939	0.005233	0.000964	-0.999986
256	2976156310													0.046751	0.020235	-9.659521	-0.719778	-0.694191	-0.004436	-0.694185	0.719791	-0.002929	0.005226	0.000972	-0.999986
257	2976164643													0.050306	-0.004313	-9.637905	-0.719820	-0.694146	-0.004441	-0.694141	0.719833	-0.002929	0.005230	0.000974	-0.999986
258	2976172976													0.066521	0.017195	-9.651839	-0.719819	-0.694148	-0.004459	-0.694142	0.719832	-0.002923	0.005238	0.000991	-0.999986
259	2976181309													0.050206	0.011015	-9.659049	-0.719856	-0.694109	-0.004452	-0.694104	0.719869	-0.002927	0.005237	0.000983	-0.999986
260	2976189642													0.055621	0.033239	-9.635351	-0.719857	-0.694109	-0.004440	-0.694103	0.719870	-0.002943	0.005239	0.000964	-0.999986
261	2976197975													0.045263	0.021559	-9.644650	-0.719879	-0.694086	-0.004425	-0.694080	0.719892	-0.002938	0.005225	0.000956	-0.999986
262	2976206308													0.063088	0.013433	-9.654593	-0.719869	-0.694096	-0.004408	-0.694091	0.719881	-0.002931	0.005208	0.000949	-0.999986
263	2976214641													0.054498	-0.000579	-9.642612	-0.719885	-0.694079	-0.004402	-0.694073	0.719898	-0.002931	0.005203	0.000945	-0.999986
264	2976222974													0.053840	0.000344	-9.644759	-0.719881	-0.694084	-0.004385	-0.694078	0.719893	-0.002938	0.005196	0.000929	-0.999986
265	2976231307													0.046028	0.003612	-9.625481	-0.719895	-0.694069	-0.004384	-0.694064	0.719908	-0.002934	0.005192	0.000931	-0.999986
266	2976239640													0.038704	0.014670	-9.649178	-0.719898	-0.694066	-0.004376	-0.694060	0.719911	-0.002928	0.005182	0.000929	-0.999986
267	2976247973													0.053389	0.002782	-9.636418	-0.719897	-0.694068	-0.004376	-0.694062	0.719909	-0.002924	0.005180	0.000932	-0.999986
268	2976256306													0.070677	0.015808	-9.661516	-0.719897	-0.694068	-0.004361	-0.694062	0.719909	-0.002939	0.005180	0.000911	-0.999986
269	2976264639													0.051508	0.003290	-9.639536	-0.719924	-0.694039	-0.004371	-0.694033	0.719937	-0.002934	0.005183	0.000921	-0.999986
270	2976272972													0.031494	0.014091	-9.622233	-0.719919	-0.694044	-0.004388	-0.694039	0.719932	-0.002938	0.005198	0.000931	-0.999986
271	2976281305													0.045521	0.004642	-9.653069	-0.719920	-0.694043	-0.004382	-0.694037	0.719933	-0.002943	0.005197	0.000923	-0.999986
272	2976289638													0.042553	0.014320	-9.638707	-0.719925	-0.694038	-0.004369	-0.694033	0.719937	-0.002957	0.005198	0.000903	-0.999986
273	2976297971													0.041808	0.025629	-9.638371	-0.719941	-0.694021	-0.004376	-0.694016	0.719954	-0.002957	0.005203	0.000908	-0.999986
274	2976306304													0.056922	-0.012668	-9.633413	-0.719937	-0.694026	-0.004384	-0.694020	0.719949	-0.002970	0.005218	0.000904	-0.999986
275	2976314637													0.030507	0.008312	-9.634507	-0.719952	-0.694010	-0.004376	-0.694004	0.719965	-0.002964	0.005208	0.000903	-0.999986
276	2976322970													0.049519	0.007475	-9.633299	-0.719954	-0.694008	-0.004396	-0.694002	0.719967	-0.002950	0.005212	0.000927	-0.999986
277	2976331303													0.048389	0.010229	-9.631274	-0.719974	-0.693987	-0.004389	-0.693981	0.719987	-0.002938	0.005199	0.000931	-0.999986
278	2976339636													0.066700	0.008204	-9.628900	-0.719983	-0.693978	-0.004371	-0.693972	0.719996	-0.002947	0.005192	0.000911	-0.999986
279	2976347969													0.070098	0.000107	-9.629608	-0.719989	-0.693972	-0.004364	-0.693966	0.720001	-0.002964	0.005199	0.000895	-0.999986
280	2976356302													0.053038	-0.005064	-9.635817	-0.719991	-0.693970	-0.004367	-0.693964	0.720004	-0.002967	0.005203	0.000895	-0.999986
281	2976364635													0.050771	-0.004420	-9.642104	-0.719986	-0.693975	-0.004368	-0.693969	0.719999	-0.002976	0.005210	0.000888	-0.999986
282	2976372968													0.041608	0.007410	-9.631804	-0.719979	-0.693982	-0.004356	-0.693976	0.719992	-0.002979	0.005204	0.000879	-0.999986
283	2976381301													0.032810	0.009499	-9.631496	-0.719997	-0.693964	-0.004349	-0.693958	0.720010	-0.002987	0.005204	0.000868	-0.999986
284	2976389634													0.047109	0.003047	-9.653027	-0.720008	-0.693952	-0.004346	-0.693946	0.720021	-0.003004	0.005214	0.000853	-0.999986
285	2976397967													0.051651	0.012804	-9.640116	-0.720030	-0.693929	-0.004358	-0.693923	0.720043	-0.002989	0.005212	0.000872	-0.999986
286	2976406300													0.065356	0.018540	-9.638005	-0.720036	-0.693923	-0.004360	-0.693917	0.720048	-0.002990	0.005214	0.000873	-0.999986
287	2976414633													0.049555	0.011058	-9.663212	-0.720063	-0.693895	-0.004357	-0.693889	0.720076	-0.002985	0.005209	0.000874	-0.999986
288	2976422966													0.043947	0.016251	-9.657962	-0.720054	-0.693905	-0.004352	-0.693899	0.720066	-0.002976	0.005199	0.000877	-0.999986
289	2976431299													0.037545	0.017439	-9.654535	-0.720069	-0.693888	-0.004357	-0.693882	0.720082	-0.002972	0.005200	0.000883	-0.999986
290	2976439632													0.048983	0.007389	-9.633213	-0.720069	-0.693888	-0.004371	-0.693883	0.720082	-0.002957	0.005200	0.000903	-0.999986
291	2976447965													0.045049	0.010693	-9.640645	-0.720081	-0.693876	-0.004369	-0.693870	0.720094	-0.002946	0.005190	0.000910	-0.999986
292	2976456298													0.048503	0.005644	-9.638356	-0.720080	-0.693877	-0.004382	-0.693872	0.720093	-0.002949	0.005201	0.000917	-0.999986
293	2976464631													0.037316	-0.010422	-9.638806	-0.720088	-0.693869	-0.004375	-0.693864	0.720100	-0.002960	0.005204	0.000904	-0.999986
294	2976472964													0.060134	0.014184	-9.625725	-0.720096	-0.693860	-0.004382	-0.693854	0.720109	-0.002955	0.005206	0.000913	-0.999986
295	2976481297													0.060391	0.017868	-9.667339	-0.720122	-0.693833	-0.004396	-0.693827	0.720135	-0.002952	0.005214	0.000924	-0.999986
296	2976489630													0.056093	0.005930	-9.648270	-0.720120	-0.693836	-0.004407	-0.693830	0.720133	-0.002954	0.005223	0.000930	-0.999986
297	2976497963													0.050749	0.000250	-9.631689	-0.720140	-0.693815	-0.004397	-0.693809	0.720153	-0.002949	0.005213	0.000927	-0.999986
298	2976506296													0.045263	0.000629	-9.639930	-0.720148	-0.693807	-0.004388	-0.693801	0.720161	-0.002952	0.005208	0.000918	-0.999986
299	2976514629													0.052201	0.017982	-9.631888	-0.720161	-0.693793	-0.004389	-0.693787	0.720174	-0.002955	0.005211	0.000917	-0.999986
300	2976522962													0.045721	0.027653	-9.656610	-0.720164	-0.693790	-0.004395	-0.693784	0.720177	-0.002960	0.005219	0.000918	-0.999986
301	2976531295													0.051579	0.009785	-9.632361	-0.720179	-0.693775	-0.004400	-0.693769	0.720192	-0.002960	0.005223	0.000921	-0.999986
302	2976539628													0.065813	0.046665	-9.648277	-0.720172	-0.693781	-0.004398	-0.693776	0.720185	-0.002976	0.005232	0.000908	-0.999986
303	2976547961													0.052509	0.006581	-9.615210	-0.720185	-0.693768	-0.004403	-0.693762	0.720198	-0.002978	0.005237	0.000910	-0.999986
304	2976556294													0.051765	0.021466	-9.642676	-0.720179	-0.693774	-0.004414	-0.693768	0.720192	-0.002967	0.005237	0.000925	-0.999986
305	2976564627													0.051615	-0.003677	-9.649464	-0.720176	-0.693777	-0.004410	-0.693772	0.720189	-0.002961	0.005230	0.000927	-0.999986
306	2976572960													0.045320	-0.005086	-9.645859	-0.720174	-0.693779	-0.004419	-0.693773	0.720187	-0.002946	0.005226	0.000944	-0.999986
307	2976581293													0.039756	0.006438	-9.665437	-0.720192	-0.693761	-0.004409	-0.693756	0.720204	-0.002947	0.005220	0.000936	-0.999986
308	2976589626													0.050070	0.007911	-9.643778	-0.720198	-0.693755	-0.004411	-0.693749	0.720210	-0.002960	0.005230	0.000929	-0.999986
309	2976597959													0.070634	-0.003848	-9.650387	-0.720215	-0.693737	-0.004402	-0.693732	0.720227	-0.002958	0.005222	0.000923	-0.999986
310	2976606292													0.050249	0.009213	-9.636446	-0.720217	-0.693735	-0.004406	-0.693729	0.720230	-0.002960	0.005227	0.000924	-0.999986
311	2976614625													0.057681	0.008755	-9.644214	-0.720226	-0.693726	-0.004396	-0.693720	0.720239	-0.002976	0.005231	0.000906	-0.999986
312	2976622958													0.047924	0.016666	-9.632590	-0.720232	-0.693719	-0.004394	-0.693714	0.720245	-0.002988	0.005238	0.000897	-0.999986
313	2976631291													0.058117	0.010128	-9.633714	-0.720240	-0.693711	-0.004402	-0.693705	0.720253	-0.002987	0.005243	0.000902	-0.999986
314	2976639624													0.042581	0.035557	-9.652669	-0.720241	-0.693710	-0.004399	-0.693704	0.720254	-0.003008	0.005255	0.000885	-0.999986
315	2976647957													0.045793	0.026287	-9.632061	-0.720252	-0.693698	-0.004396	-0.693692	0.720265	-0.003017	0.005260	0.000876	-0.999986
316	2976656290													0.045771	0.009077	-9.633019	-0.720250	-0.693701	-0.004396	-0.693695	0.720263	-0.003010	0.005255	0.000881	-0.999986
317	2976664623													0.039441	0.010672	-9.643414	-0.720270	-0.693680	-0.004398	-0.693674	0.720283	-0.003020	0.005263	0.000876	-0.999986
318	2976672956													0.049648	-0.001209	-9.647361	-0.720271	-0.693679	-0.004393	-0.693673	0.720284	-0.003017	0.005256	0.000874	-0.999986
319	2976681289													0.059712	0.008083	-9.626210	-0.720287	-0.693662	-0.004399	-0.693656	0.720300	-0.003014	0.005259	0.000881	-0.999986
320	2976689622													0.067759	-0.007232	-9.643598	-0.720293	-0.693656	-0.004395	-0.693650	0.720306	-0.003027	0.005265	0.000868	-0.999986
321	2976697955													0.061643	-0.027502	-9.648293	-0.720299	-0.693650	-0.004395	-0.693644	0.720312	-0.003031	0.005268	0.000865	-0.999986
322	2976706288													0.055199	0.003290	-9.647920	-0.720296	-0.693653	-0.004402	-0.693647	0.720309	-0.003010	0.005259	0.000885	-0.999986
323	2976714621													0.047674	0.008133	-9.649986	-0.720288	-0.693661	-0.004416	-0.693655	0.720301	-0.002989	0.005254	0.000911	-0.999986
324	2976722954													0.042480	0.017195	-9.649256	-0.720288	-0.693661	-0.004408	-0.693655	0.720301	-0.002989	0.005248	0.000904	-0.999986
325	2976731287													0.056615	0.017940	-9.640473	-0.720290	-0.693659	-0.004415	-0.693653	0.720303	-0.002992	0.005255	0.000907	-0.999986
326	2976739620													0.047087	0.027052	-9.653327	-0.720294	-0.693655	-0.004424	-0.693649	0.720307	-0.002997	0.005265	0.000910	-0.999986
327	2976747953													0.043025	0.018068	-9.628106	-0.720310	-0.693638	-0.004418	-0.693632	0.720323	-0.002983	0.005251	0.000916	-0.999986
328	2976756286													0.052602	0.017181	-9.663534	-0.720307	-0.693642	-0.004414	-0.693636	0.720320	-0.002981	0.005248	0.000915	-0.999986
329	2976764619													0.049798	0.018812	-9.634859	-0.720307	-0.693642	-0.004407	-0.693636	0.720320	-0.002974	0.005237	0.000915	-0.999986
330	2976772952													0.050499	0.009292	-9.658648	-0.720309	-0.693639	-0.004401	-0.693633	0.720322	-0.002990	0.005244	0.000899	-0.999986
331	2976781285													0.035743	-0.010808	-9.656552	-0.720335	-0.693612	-0.004402	-0.693606	0.720348	-0.002989	0.005244	0.000901	-0.999986
332	2976789618													0.049383	-0.003047	-9.640780	-0.720328	-0.693620	-0.004403	-0.693614	0.720341	-0.002977	0.005237	0.000910	-0.999986
333	2976797951													0.069325	0.000844	-9.648405	-0.720352	-0.693594	-0.004403	-0.693589	0.720365	-0.002973	0.005234	0.000912	-0.999986
334	2976806284													0.059526	0.020099	-9.644965	-0.720343	-0.693604	-0.004407	-0.693598	0.720356	-0.002962	0.005229	0.000923	-0.999986
335	2976814617													0.038525	-0.008526	-9.635609	-0.720339	-0.693608	-0.004413	-0.693602	0.720352	-0.002967	0.005237	0.000923	-0.999986
336	2976822950													0.025936	0.005715	-9.647612	-0.720340	-0.693607	-0.004413	-0.693602	0.720353	-0.002962	0.005233	0.000928	-0.999986
337	2976831283													0.045685	-0.002182	-9.636381	-0.720349	-0.693597	-0.004431	-0.693592	0.720362	-0.002959	0.005244	0.000942	-0.999986
338	2976839616													0.047874	0.017038	-9.620795	-0.720357	-0.693589	-0.004440	-0.693584	0.720370	-0.002942	0.005239	0.000960	-0.999986
339	2976847949													0.053160	0.018955	-9.653005	-0.720360	-0.693586	-0.004444	-0.693580	0.720373	-0.002952	0.005249	0.000956	-0.999986
340	2976856282													0.038718	0.034269	-9.627854	-0.720352	-0.693595	-0.004434	-0.693589	0.720365	-0.002951	0.005241	0.000949	-0.999986
341	2976864615													0.048232	0.013927	-9.660901	-0.720362	-0.693584	-0.004435	-0.693579	0.720375	-0.002956	0.005245	0.000947	-0.999986
342	2976872948													0.049047	0.025142	-9.645781	-0.720359	-0.693587	-0.004446	-0.693582	0.720372	-0.002959	0.005255	0.000952	-0.999986
343	2976881281													0.053510	0.005772	-9.663777	-0.720374	-0.693572	-0.004427	-0.693566	0.720387	-0.002963	0.005244	0.000936	-0.999986
344	2976889614													0.051036	0.000107	-9.645251	-0.720371	-0.693575	-0.004419	-0.693569	0.720384	-0.002975	0.005247	0.000922	-0.999986
345	2976897947													0.045585	-0.016516	-9.634300	-0.720384	-0.693561	-0.004438	-0.693555	0.720397	-0.002981	0.005265	0.000931	-0.999986
346	2976906280													0.044212	0.007732	-9.658148	-0.720388	-0.693557	-0.004446	-0.693551	0.720401	-0.002979	0.005269	0.000937	-0.999986
347	2976914613													0.047545	-0.014442	-9.639815	-0.720414	-0.693529	-0.004460	-0.693524	0.720428	-0.002980	0.005279	0.000946	-0.999986
348	2976922946													0.043647	0.007096	-9.625153	-0.720415	-0.693529	-0.004463	-0.693523	0.720428	-0.002980	0.005282	0.000949	-0.999986
349	2976931279													0.047087	0.007553	-9.637018	-0.720433	-0.693510	-0.004461	-0.693505	0.720446	-0.002983	0.005282	0.000945	-0.999986
350	2976939612													0.048160	0.017145	-9.646202	-0.720428	-0.693515	-0.004454	-0.693510	0.720441	-0.002980	0.005275	0.000942	-0.999986
351	2976947945													0.039713	0.025493	-9.650609	-0.720457	-0.693485	-0.004456	-0.693479	0.720470	-0.002967	0.005268	0.000953	-0.999986
352	2976956278													0.052287	0.031673	-9.639965	-0.720460	-0.693482	-0.004441	-0.693476	0.720473	-0.002983	0.005268	0.000931	-0.999986
353	2976964611													0.040135	0.008140	-9.631418	-0.720481	-0.693461	-0.004451	-0.693455	0.720494	-0.002985	0.005277	0.000936	-0.999986
354	2976972944													0.043175	0.013362	-9.649943	-0.720480	-0.693461	-0.004456	-0.693455	0.720493	-0.002989	0.005284	0.000936	-0.999986
355	2976981277													0.059018	0.014670	-9.653992	-0.720499	-0.693442	-0.004444	-0.693436	0.720512	-0.002981	0.005269	0.000933	-0.999986
356	2976989610													0.030021	0.006302	-9.627599	-0.720498	-0.693443	-0.004447	-0.693437	0.720511	-0.002993	0.005279	0.000928	-0.999986
357	2976997943													0.056922	-0.001481	-9.654901	-0.720526	-0.693414	-0.004439	-0.693408	0.720539	-0.002997	0.005277	0.000919	-0.999986
358	2977006276													0.051021	0.008598	-9.653177	-0.720539	-0.693400	-0.004446	-0.693395	0.720552	-0.003007	0.005289	0.000916	-0.999986
359	2977014609													0.038833	0.025664	-9.642068	-0.720538	-0.693401	-0.004430	-0.693395	0.720551	-0.003019	0.005285	0.000896	-0.999986
360	2977022942													0.056064	0.015729	-9.636939	-0.720542	-0.693397	-0.004434	-0.693392	0.720555	-0.003005	0.005279	0.000909	-0.999986
361	2977031275													0.047788	0.005357	-9.632641	-0.720554	-0.693384	-0.004438	-0.693378	0.720567	-0.002995	0.005275	0.000919	-0.999986
362	2977039608													0.045736	0.011516	-9.615969	-0.720554	-0.693385	-0.004435	-0.693379	0.720567	-0.002997	0.005274	0.000916	-0.999986
363	2977047941													0.051944	0.001316	-9.651651	-0.720554	-0.693385	-0.004439	-0.693379	0.720567	-0.002990	0.005272	0.000924	-0.999986
364	2977056274													0.061085	0.006981	-9.666267	-0.720550	-0.693389	-0.004443	-0.693383	0.720563	-0.002995	0.005278	0.000923	-0.999986
365	2977064607													0.049891	0.009435	-9.641475	-0.720567	-0.693371	-0.004438	-0.693365	0.720580	-0.003001	0.005279	0.000915	-0.999986
366	2977072940													0.057931	0.018454	-9.661588	-0.720565	-0.693373	-0.004445	-0.693367	0.720578	-0.003004	0.005286	0.000917	-0.999986
367	2977081273													0.061793	0.013397	-9.639135	-0.720591	-0.693347	-0.004446	-0.693341	0.720604	-0.003015	0.005294	0.000910	-0.999986
368	2977089606													0.051028	0.003262	-9.627312	-0.720595	-0.693342	-0.004456	-0.693336	0.720608	-0.003015	0.005301	0.000917	-0.999986
369	2977097939													0.047831	0.016008	-9.647105	-0.720613	-0.693323	-0.004457	-0.693318	0.720626	-0.003012	0.005300	0.000920	-0.999986
370	2977106272													0.046436	0.026308	-9.645616	-0.720608	-0.693328	-0.004455	-0.693323	0.720621	-0.003004	0.005293	0.000925	-0.999986
371	2977114605													0.038017	-0.006423	-9.624937	-0.720629	-0.693306	-0.004459	-0.693300	0.720642	-0.003014	0.005303	0.000919	-0.999986
372	2977122938													0.053324	0.008040	-9.663792	-0.720627	-0.693309	-0.004442	-0.693303	0.720640	-0.003010	0.005288	0.000911	-0.999986
373	2977131271													0.051279	0.005536	-9.618972	-0.720626	-0.693310	-0.004435	-0.693304	0.720639	-0.003014	0.005286	0.000903	-0.999986
374	2977139604													0.049076	-0.001495	-9.641732	-0.720630	-0.693306	-0.004432	-0.693300	0.720643	-0.003011	0.005281	0.000903	-0.999986
375	2977147937													0.049533	0.006359	-9.618937	-0.720664	-0.693271	-0.004417	-0.693265	0.720677	-0.003020	0.005277	0.000885	-0.999986
376	2977156270													0.065234	0.010436	-9.636970	-0.720667	-0.693267	-0.004424	-0.693261	0.720680	-0.003031	0.005290	0.000883	-0.999986
377	2977164603													0.039348	-0.004800	-9.676037	-0.720669	-0.693265	-0.004438	-0.693259	0.720682	-0.003039	0.005305	0.000887	-0.999986
378	2977172936													0.050135	0.016330	-9.653592	-0.720671	-0.693263	-0.004438	-0.693257	0.720684	-0.003040	0.005306	0.000886	-0.999986
379	2977181269													0.044541	0.005393	-9.656810	-0.720678	-0.693256	-0.004441	-0.693250	0.720691	-0.003042	0.005310	0.000887	-0.999986
380	2977189602													0.044769	0.012825	-9.640350	-0.720678	-0.693256	-0.004426	-0.693250	0.720691	-0.003048	0.005303	0.000872	-0.999986
381	2977197935													0.058432	-0.013705	-9.668920	-0.720699	-0.693234	-0.004431	-0.693228	0.720712	-0.003030	0.005294	0.000888	-0.999986
382	2977206268													0.057673	0.011144	-9.646167	-0.720691	-0.693243	-0.004436	-0.693237	0.720704	-0.003054	0.005314	0.000875	-0.999985
383	2977214601													0.053167	0.009728	-9.641603	-0.720712	-0.693220	-0.004436	-0.693214	0.720725	-0.003060	0.005319	0.000870	-0.999985
384	2977222934													0.079017	0.012711	-9.623957	-0.720715	-0.693217	-0.004452	-0.693211	0.720728	-0.003043	0.005318	0.000893	-0.999985
385	2977231267													0.052688	0.013061	-9.647089	-0.720724	-0.693207	-0.004454	-0.693201	0.720738	-0.003051	0.005325	0.000888	-0.999985
386	2977239600													0.042452	0.012667	-9.664591	-0.720721	-0.693211	-0.004451	-0.693205	0.720734	-0.003061	0.005330	0.000879	-0.999985
387	2977247933													0.037324	0.007303	-9.641704	-0.720731	-0.693201	-0.004458	-0.693194	0.720744	-0.003054	0.005330	0.000889	-0.999985
388	2977256266													0.061529	-0.002875	-9.647461	-0.720729	-0.693202	-0.004464	-0.693196	0.720742	-0.003048	0.005331	0.000898	-0.999985
389	2977264599													0.044297	-0.000158	-9.637260	-0.720724	-0.693208	-0.004453	-0.693202	0.720737	-0.003050	0.005324	0.000889	-0.999985
390	2977272932													0.043926	0.004099	-9.647098	-0.720716	-0.693216	-0.004457	-0.693210	0.720729	-0.003042	0.005321	0.000897	-0.999985
391	2977281265													0.040957	0.008955	-9.649392	-0.720729	-0.693203	-0.004458	-0.693197	0.720742	-0.003053	0.005329	0.000890	-0.999985
392	2977289598													0.058517	0.018841	-9.660465	-0.720730	-0.693201	-0.004448	-0.693195	0.720744	-0.003047	0.005318	0.000888	-0.999985
393	2977297931													0.053839	0.006960	-9.658369	-0.720734	-0.693198	-0.004470	-0.693191	0.720747	-0.003068	0.005348	0.000888	-0.999985
394	2977306264													0.069333	0.001473	-9.647039	-0.720742	-0.693189	-0.004480	-0.693183	0.720755	-0.003072	0.005358	0.000892	-0.999985
395	2977314597													0.043081	-0.001667	-9.642369	-0.720760	-0.693170	-0.004482	-0.693164	0.720774	-0.003060	0.005351	0.000901	-0.999985
396	2977322930													0.051150	-0.003419	-9.651124	-0.720751	-0.693179	-0.004479	-0.693173	0.720765	-0.003074	0.005359	0.000889	-0.999985
397	2977331263													0.046100	0.005279	-9.650415	-0.720722	-0.693210	-0.004457	-0.693204	0.720735	-0.003087	0.005352	0.000864	-0.999985
398	2977339596													0.057888	0.042481	-9.655673	-0.720717	-0.693215	-0.004461	-0.693208	0.720731	-0.003095	0.005361	0.000862	-0.999985
399	2977347929													0.056250	0.000386	-9.641029	-0.720704	-0.693228	-0.004459	-0.693222	0.720718	-0.003092	0.005357	0.000862	-0.999985
400	2977356262													0.025700	0.008305	-9.624194	-0.720700	-0.693233	-0.004457	-0.693226	0.720713	-0.003095	0.005357	0.000859	-0.999985
401	2977364595													0.038411	0.014721	-9.627362	-0.720703	-0.693230	-0.004446	-0.693224	0.720716	-0.003104	0.005356	0.000845	-0.999985
402	2977372928													0.051765	0.027653	-9.628900	-0.720696	-0.693237	-0.004433	-0.693231	0.720709	-0.003111	0.005352	0.000831	-0.999985
403	2977381261													0.045600	0.013147	-9.644587	-0.720712	-0.693220	-0.004429	-0.693214	0.720726	-0.003112	0.005349	0.000828	-0.999985
404	2977389594													0.046823	0.009220	-9.642254	-0.720711	-0.693221	-0.004440	-0.693215	0.720724	-0.003111	0.005357	0.000836	-0.999985
405	2977397927													0.063932	0.015636	-9.648791	-0.720703	-0.693230	-0.004434	-0.693224	0.720716	-0.003104	0.005348	0.000836	-0.999985
406	2977406260													0.051737	-0.002432	-9.620454	-0.720692	-0.693241	-0.004449	-0.693234	0.720706	-0.003103	0.005357	0.000848	-0.999985
407	2977414593													0.051000	0.006910	-9.653928	-0.720709	-0.693224	-0.004462	-0.693217	0.720722	-0.003105	0.005368	0.000856	-0.999985
408	2977422926													0.050757	0.024670	-9.658312	-0.720710	-0.693222	-0.004471	-0.693216	0.720723	-0.003087	0.005362	0.000875	-0.999985
409	2977431259													0.048067	0.018805	-9.629128	-0.720703	-0.693230	-0.004468	-0.693224	0.720716	-0.003087	0.005360	0.000872	-0.999985
410	2977439592													0.048339	0.004878	-9.620752	-0.720700	-0.693233	-0.004485	-0.693226	0.720713	-0.003093	0.005377	0.000880	-0.999985
411	2977447925													0.041944	0.019785	-9.645867	-0.720708	-0.693224	-0.004506	-0.693218	0.720722	-0.003088	0.005388	0.000899	-0.999985
412	2977456258													0.051465	0.011888	-9.631954	-0.720711	-0.693221	-0.004511	-0.693215	0.720725	-0.003096	0.005397	0.000896	-0.999985
413	2977464591													0.043732	-0.002854	-9.651789	-0.720745	-0.693186	-0.004519	-0.693180	0.720758	-0.003079	0.005391	0.000913	-0.999985
414	2977472924													0.051694	0.008455	-9.641260	-0.720744	-0.693187	-0.004539	-0.693181	0.720757	-0.003059	0.005392	0.000942	-0.999985
415	2977481257													0.043418	0.014535	-9.645509	-0.720757	-0.693172	-0.004544	-0.693166	0.720771	-0.003065	0.005399	0.000941	-0.999985
416	2977489590													0.047960	0.005694	-9.640860	-0.720753	-0.693177	-0.004548	-0.693171	0.720766	-0.003071	0.005407	0.000939	-0.999985
417	2977497923													0.051858	0.025979	-9.665780	-0.720754	-0.693176	-0.004546	-0.693170	0.720768	-0.003075	0.005408	0.000935	-0.999985
418	2977506256													0.054354	0.013404	-9.657604	-0.720747	-0.693183	-0.004546	-0.693177	0.720761	-0.003088	0.005417	0.000925	-0.999985
419	2977514589													0.068245	0.004992	-9.630095	-0.720760	-0.693169	-0.004547	-0.693163	0.720774	-0.003081	0.005413	0.000930	-0.999985
420	2977522922													0.037667	0.013469	-9.644078	-0.720765	-0.693164	-0.004538	-0.693158	0.720779	-0.003097	0.005418	0.000913	-0.999985
421	2977531255													0.058174	-0.015100	-9.628220	-0.720778	-0.693152	-0.004528	-0.693145	0.720791	-0.003097	0.005410	0.000906	-0.999985
422	2977539588													0.049519	-0.004435	-9.635988	-0.720779	-0.693151	-0.004531	-0.693144	0.720792	-0.003105	0.005418	0.000902	-0.999985
423	2977547921													0.040228	0.009699	-9.612119	-0.720783	-0.693146	-0.004546	-0.693140	0.720796	-0.003108	0.005431	0.000911	-0.999985
424	2977556254													0.054891	0.020221	-9.652776	-0.720786	-0.693143	-0.004542	-0.693136	0.720800	-0.003107	0.005427	0.000909	-0.999985
425	2977564587													0.057258	0.001924	-9.633584	-0.720799	-0.693129	-0.004556	-0.693123	0.720813	-0.003114	0.005443	0.000913	-0.999985
426	2977572920													0.057502	0.017868	-9.645294	-0.720798	-0.693130	-0.004561	-0.693124	0.720812	-0.003109	0.005442	0.000921	-0.999985
427	2977581253													0.049233	-0.006259	-9.632619	-0.720794	-0.693135	-0.004553	-0.693128	0.720807	-0.003109	0.005437	0.000915	-0.999985
428	2977589586													0.043990	0.010979	-9.660087	-0.720793	-0.693135	-0.004566	-0.693129	0.720807	-0.003110	0.005447	0.000923	-0.999985
429	2977597919													0.042910	0.005257	-9.646896	-0.720797	-0.693132	-0.004558	-0.693125	0.720810	-0.003114	0.005444	0.000915	-0.999985
430	2977606252													0.047581	0.005243	-9.664092	-0.720796	-0.693132	-0.004544	-0.693126	0.720810	-0.003111	0.005431	0.000907	-0.999985
431	2977614585													0.064619	-0.001996	-9.659098	-0.720795	-0.693133	-0.004548	-0.693127	0.720809	-0.003117	0.005439	0.000906	-0.999985
432	2977622918													0.061443	-0.011366	-9.659349	-0.720795	-0.693133	-0.004537	-0.693127	0.720809	-0.003129	0.005439	0.000889	-0.999985
433	2977631251													0.057952	-0.000300	-9.623893	-0.720804	-0.693124	-0.004537	-0.693118	0.720817	-0.003123	0.005435	0.000894	-0.999985
434	2977639584													0.070234	-0.007833	-9.641973	-0.720807	-0.693121	-0.004543	-0.693115	0.720821	-0.003121	0.005438	0.000899	-0.999985
435	2977647917													0.050985	0.015779	-9.648012	-0.720808	-0.693120	-0.004537	-0.693114	0.720822	-0.003117	0.005431	0.000898	-0.999985
436	2977656250													0.046336	-0.004399	-9.634730	-0.720814	-0.693114	-0.004533	-0.693107	0.720828	-0.003130	0.005437	0.000885	-0.999985
437	2977664583													0.050242	0.009892	-9.631660	-0.720817	-0.693110	-0.004543	-0.693104	0.720831	-0.003158	0.005464	0.000872	-0.999985
438	2977672916													0.060120	0.010608	-9.639586	-0.720820	-0.693107	-0.004543	-0.693101	0.720834	-0.003145	0.005455	0.000882	-0.999985
439	2977681249													0.041186	0.024162	-9.641761	-0.720821	-0.693106	-0.004544	-0.693100	0.720835	-0.003146	0.005456	0.000882	-0.999985
440	2977689582													0.050106	0.034663	-9.659879	-0.720818	-0.693110	-0.004563	-0.693103	0.720832	-0.003148	0.005471	0.000893	-0.999985
441	2977697915													0.052938	0.022825	-9.662347	-0.720826	-0.693101	-0.004557	-0.693094	0.720840	-0.003144	0.005463	0.000892	-0.999985
442	2977706248													0.050006	0.029899	-9.630881	-0.720819	-0.693109	-0.004555	-0.693102	0.720833	-0.003144	0.005462	0.000891	-0.999985
443	2977714581													0.062831	0.017446	-9.625301	-0.720839	-0.693088	-0.004552	-0.693081	0.720852	-0.003124	0.005446	0.000904	-0.999985
444	2977722914													0.055663	0.031358	-9.646095	-0.720841	-0.693085	-0.004551	-0.693079	0.720855	-0.003125	0.005446	0.000901	-0.999985
445	2977731247													0.070799	0.004306	-9.645967	-0.720847	-0.693079	-0.004541	-0.693073	0.720861	-0.003117	0.005434	0.000901	-0.999985
446	2977739580													0.055814	0.019799	-9.658026	-0.720848	-0.693079	-0.004529	-0.693072	0.720861	-0.003114	0.005423	0.000894	-0.999985
447	2977747913													0.047903	0.012839	-9.658255	-0.720869	-0.693056	-0.004528	-0.693050	0.720883	-0.003114	0.005422	0.000893	-0.999985
448	2977756246													0.054411	0.007560	-9.640136	-0.720873	-0.693052	-0.004532	-0.693046	0.720887	-0.003114	0.005425	0.000896	-0.999985
449	2977764579													0.047030	0.006881	-9.645043	-0.720868	-0.693057	-0.004536	-0.693051	0.720882	-0.003126	0.005437	0.000890	-0.999985
450	2977772912													0.045242	0.008254	-9.658849	-0.720868	-0.693057	-0.004535	-0.693051	0.720882	-0.003133	0.005441	0.000885	-0.999985
451	2977781245													0.033139	-0.001502	-9.641704	-0.720875	-0.693051	-0.004548	-0.693044	0.720888	-0.003122	0.005442	0.000901	-0.999985
452	2977789578													0.063989	0.005579	-9.625566	-0.720871	-0.693055	-0.004537	-0.693048	0.720885	-0.003124	0.005436	0.000892	-0.999985
453	2977797911													0.047566	0.007525	-9.644048	-0.720871	-0.693054	-0.004560	-0.693047	0.720885	-0.003128	0.005455	0.000905	-0.999985
454	2977806244													0.054469	0.024642	-9.642347	-0.720882	-0.693042	-0.004569	-0.693036	0.720896	-0.003142	0.005471	0.000901	-0.999985
455	2977814577													0.067573	0.001602	-9.639221	-0.720894	-0.693030	-0.004573	-0.693024	0.720908	-0.003136	0.005470	0.000909	-0.999985
456	2977822910													0.059361	0.010279	-9.640502	-0.720894	-0.693030	-0.004571	-0.693024	0.720908	-0.003151	0.005479	0.000896	-0.999985
457	2977831243													0.055227	0.026179	-9.648842	-0.720901	-0.693022	-0.004581	-0.693016	0.720915	-0.003156	0.005490	0.000900	-0.999985
458	2977839576													0.071486	0.025336	-9.646339	-0.720900	-0.693024	-0.004583	-0.693018	0.720914	-0.003159	0.005493	0.000899	-0.999985
459	2977847909													0.049834	0.019914	-9.638592	-0.720900	-0.693024	-0.004579	-0.693018	0.720914	-0.003169	0.005498	0.000889	-0.999984
460	2977856242													0.056407	0.015050	-9.651296	-0.720898	-0.693026	-0.004578	-0.693019	0.720912	-0.003161	0.005491	0.000894	-0.999985
461	2977864575													0.050735	0.006624	-9.637712	-0.720906	-0.693017	-0.004595	-0.693011	0.720920	-0.003177	0.005514	0.000894	-0.999984
462	2977872908													0.060048	0.003505	-9.627305	-0.720902	-0.693022	-0.004613	-0.693015	0.720916	-0.003170	0.005522	0.000912	-0.999984
463	2977881241													0.045456	0.011402	-9.638828	-0.720910	-0.693013	-0.004617	-0.693006	0.720924	-0.003178	0.005531	0.000909	-0.999984
464	2977889574													0.051086	0.006888	-9.609065	-0.720912	-0.693011	-0.004617	-0.693004	0.720927	-0.003176	0.005529	0.000910	-0.999984
465	2977897907													0.050492	0.024635	-9.650581	-0.720913	-0.693010	-0.004611	-0.693003	0.720928	-0.003180	0.005528	0.000903	-0.999984
466	2977906240													0.059090	0.012453	-9.638463	-0.720908	-0.693015	-0.004598	-0.693009	0.720922	-0.003172	0.005513	0.000899	-0.999984
467	2977914573													0.056529	0.009900	-9.633928	-0.720895	-0.693029	-0.004596	-0.693023	0.720909	-0.003186	0.005521	0.000889	-0.999984
468	2977922906													0.037459	0.017431	-9.645257	-0.720892	-0.693032	-0.004594	-0.693025	0.720907	-0.003189	0.005522	0.000884	-0.999984
469	2977931239													0.041480	-0.002875	-9.655687	-0.720887	-0.693038	-0.004583	-0.693031	0.720901	-0.003187	0.005513	0.000878	-0.999984
470	2977939572													0.054626	0.012346	-9.643570	-0.720890	-0.693035	-0.004577	-0.693028	0.720904	-0.003194	0.005513	0.000869	-0.999984
471	2977947905													0.063367	0.016659	-9.636847	-0.720902	-0.693022	-0.004577	-0.693016	0.720916	-0.003198	0.005516	0.000867	-0.999984
472	2977956238													0.051107	0.023483	-9.662218	-0.720901	-0.693023	-0.004573	-0.693016	0.720915	-0.003188	0.005506	0.000871	-0.999984
473	2977964571													0.054183	0.009650	-9.655030	-0.720900	-0.693024	-0.004582	-0.693018	0.720914	-0.003176	0.005504	0.000886	-0.999984
474	2977972904													0.065885	0.024963	-9.643885	-0.720902	-0.693022	-0.004573	-0.693015	0.720916	-0.003170	0.005493	0.000884	-0.999985
475	2977981237													0.048203	0.016387	-9.645666	-0.720909	-0.693014	-0.004583	-0.693008	0.720923	-0.003173	0.005503	0.000888	-0.999984
476	2977989570													0.044212	0.000229	-9.650716	-0.720915	-0.693008	-0.004584	-0.693002	0.720929	-0.003171	0.005502	0.000891	-0.999984
477	2977997903													0.065026	0.013390	-9.653634	-0.720942	-0.692981	-0.004528	-0.692975	0.720956	-0.003039	0.005370	0.000946	-0.999985
478	2978006236													0.058303	0.005522	-9.631560	-0.720941	-0.692982	-0.004520	-0.692976	0.720955	-0.003036	0.005362	0.000944	-0.999985
479	2978014569													0.070599	0.006216	-9.660809	-0.720958	-0.692964	-0.004525	-0.692958	0.720972	-0.003045	0.005372	0.000940	-0.999985
480	2978022902													0.051229	0.007525	-9.650474	-0.720965	-0.692957	-0.004531	-0.692951	0.720978	-0.003058	0.005386	0.000935	-0.999985
481	2978031235													0.045621	0.009542	-9.634436	-0.720966	-0.692956	-0.004543	-0.692950	0.720979	-0.003045	0.005386	0.000953	-0.999985
482	2978039568													0.047731	0.010093	-9.627133	-0.720963	-0.692959	-0.004538	-0.692953	0.720977	-0.003052	0.005387	0.000944	-0.999985
483	2978047901													0.044062	0.027045	-9.639830	-0.720954	-0.692967	-0.004564	-0.692962	0.720968	-0.003039	0.005396	0.000972	-0.999985
484	2978056234													0.067430	0.020665	-9.647833	-0.720946	-0.692976	-0.004569	-0.692970	0.720960	-0.003032	0.005395	0.000980	-0.999985
485	2978064567													0.055664	0.014785	-9.652184	-0.720951	-0.692972	-0.004546	-0.692966	0.720964	-0.003032	0.005378	0.000964	-0.999985
486	2978072900													0.060785	0.018032	-9.639930	-0.720950	-0.692972	-0.004557	-0.692966	0.720964	-0.003032	0.005387	0.000972	-0.999985
487	2978081233													0.048031	0.007182	-9.621604	-0.720949	-0.692973	-0.004554	-0.692967	0.720963	-0.003043	0.005392	0.000962	-0.999985
488	2978089566													0.029634	0.013490	-9.650930	-0.720951	-0.692971	-0.004558	-0.692965	0.720965	-0.003035	0.005390	0.000970	-0.999985
489	2978097899													0.054197	0.011873	-9.644485	-0.720971	-0.692951	-0.004564	-0.692945	0.720984	-0.003033	0.005393	0.000976	-0.999985
490	2978106232													0.055485	-0.002868	-9.630781	-0.720975	-0.692946	-0.004562	-0.692940	0.720989	-0.003034	0.005392	0.000973	-0.999985
491	2978114565													0.063038	0.013097	-9.643899	-0.720983	-0.692938	-0.004553	-0.692932	0.720996	-0.003032	0.005384	0.000969	-0.999985
492	2978122898													0.059376	0.008755	-9.664650	-0.720986	-0.692935	-0.004547	-0.692929	0.721000	-0.003022	0.005372	0.000972	-0.999985
493	2978131231													0.058804	-0.014635	-9.643885	-0.721004	-0.692916	-0.004549	-0.692910	0.721018	-0.003023	0.005374	0.000972	-0.999985
494	2978139564													0.042395	0.008719	-9.654343	-0.721002	-0.692918	-0.004548	-0.692912	0.721016	-0.003024	0.005375	0.000971	-0.999985
495	2978147897													0.058861	0.002739	-9.631318	-0.720990	-0.692930	-0.004551	-0.692924	0.721004	-0.003031	0.005382	0.000968	-0.999985
496	2978156230													0.051844	0.005379	-9.643913	-0.720986	-0.692935	-0.004536	-0.692929	0.721000	-0.003020	0.005363	0.000966	-0.999985
497	2978164563													0.054033	0.017067	-9.641661	-0.721001	-0.692920	-0.004527	-0.692914	0.721014	-0.003027	0.005361	0.000955	-0.999985
498	2978172896													0.045464	0.013898	-9.624087	-0.720993	-0.692927	-0.004524	-0.692921	0.721007	-0.003050	0.005375	0.000936	-0.999985
499	2978181229													0.039534	0.007632	-9.650968	-0.720991	-0.692929	-0.004526	-0.692923	0.721005	-0.003047	0.005375	0.000939	-0.999985
500	2978189562													0.049004	0.010715	-9.645237	-0.720987	-0.692933	-0.004535	-0.692927	0.721001	-0.003059	0.005389	0.000937	-0.999985
501	2978197895													0.055699	0.008240	-9.624137	-0.720989	-0.692932	-0.004525	-0.692926	0.721002	-0.003059	0.005382	0.000930	-0.999985
502	2978206228													0.049991	0.019041	-9.650108	-0.720992	-0.692929	-0.004524	-0.692923	0.721005	-0.003069	0.005389	0.000922	-0.999985
503	2978214561													0.066414	-0.000587	-9.635665	-0.720991	-0.692930	-0.004527	-0.692924	0.721004	-0.003075	0.005395	0.000920	-0.999985
504	2978222894													0.044927	0.013569	-9.664350	-0.720982	-0.692939	-0.004523	-0.692933	0.720996	-0.003074	0.005391	0.000917	-0.999985
505	2978231227													0.049541	0.007747	-9.653534	-0.720989	-0.692931	-0.004527	-0.692925	0.721003	-0.003097	0.005410	0.000904	-0.999985
506	2978239560													0.048939	-0.005365	-9.650458	-0.720991	-0.692929	-0.004516	-0.692923	0.721005	-0.003095	0.005401	0.000898	-0.999985
507	2978247893													0.053353	0.007310	-9.634579	-0.720996	-0.692925	-0.004523	-0.692919	0.721009	-0.003095	0.005406	0.000903	-0.999985
508	2978256226													0.056400	0.001102	-9.610931	-0.720998	-0.692923	-0.004532	-0.692917	0.721011	-0.003092	0.005410	0.000911	-0.999985
509	2978264559													0.045070	0.006903	-9.634158	-0.721004	-0.692916	-0.004552	-0.692910	0.721018	-0.003096	0.005428	0.000922	-0.999985
510	2978272892													0.045771	0.018276	-9.656202	-0.721007	-0.692912	-0.004559	-0.692906	0.721021	-0.003109	0.005441	0.000918	-0.999985
511	2978281225													0.047717	0.009756	-9.627040	-0.721016	-0.692903	-0.004561	-0.692897	0.721030	-0.003107	0.005441	0.000920	-0.999985
512	2978289558													0.073145	0.017818	-9.629780	-0.721016	-0.692904	-0.004563	-0.692897	0.721030	-0.003104	0.005441	0.000924	-0.999985
513	2978297891													0.057373	0.015393	-9.638456	-0.721028	-0.692891	-0.004550	-0.692885	0.721041	-0.003118	0.005441	0.000904	-0.999985
514	2978306224													0.054977	0.026494	-9.659299	-0.721029	-0.692890	-0.004553	-0.692884	0.721042	-0.003099	0.005430	0.000920	-0.999985
515	2978314557													0.046637	0.021452	-9.635238	-0.721026	-0.692893	-0.004550	-0.692887	0.721040	-0.003101	0.005429	0.000917	-0.999985
516	2978322890													0.047130	0.005644	-9.654300	-0.721019	-0.692900	-0.004553	-0.692894	0.721033	-0.003089	0.005423	0.000928	-0.999985
517	2978331223													0.070234	0.022896	-9.637425	-0.721032	-0.692887	-0.004553	-0.692881	0.721046	-0.003095	0.005428	0.000923	-0.999985
518	2978339556													0.052681	0.003547	-9.644836	-0.721039	-0.692880	-0.004560	-0.692873	0.721053	-0.003101	0.005436	0.000924	-0.999985
519	2978347889													0.036479	0.010851	-9.643570	-0.721020	-0.692899	-0.004554	-0.692893	0.721034	-0.003099	0.005431	0.000921	-0.999985
520	2978356222													0.049791	0.002296	-9.656289	-0.721018	-0.692901	-0.004546	-0.692895	0.721032	-0.003101	0.005427	0.000914	-0.999985
521	2978364555													0.053010	-0.003455	-9.643291	-0.721036	-0.692883	-0.004551	-0.692877	0.721050	-0.003095	0.005427	0.000922	-0.999985
522	2978372888													0.049619	0.003305	-9.655288	-0.721030	-0.692889	-0.004553	-0.692883	0.721043	-0.003100	0.005431	0.000919	-0.999985
523	2978381221													0.055899	0.002868	-9.623707	-0.721043	-0.692876	-0.004545	-0.692869	0.721056	-0.003103	0.005427	0.000911	-0.999985
524	2978389554													0.041222	0.021430	-9.646653	-0.721049	-0.692869	-0.004550	-0.692863	0.721063	-0.003104	0.005432	0.000914	-0.999985
525	2978397887													0.022925	-0.001888	-9.655866	-0.721053	-0.692865	-0.004546	-0.692859	0.721066	-0.003116	0.005437	0.000903	-0.999985
526	2978406220													0.069018	0.019084	-9.627556	-0.721055	-0.692863	-0.004546	-0.692856	0.721069	-0.003116	0.005437	0.000903	-0.999985
527	2978414553													0.049047	0.016974	-9.629708	-0.721058	-0.692860	-0.004542	-0.692853	0.721072	-0.003123	0.005439	0.000895	-0.999985
528	2978422886													0.050785	-0.002139	-9.640101	-0.721053	-0.692865	-0.004546	-0.692859	0.721067	-0.003134	0.005449	0.000890	-0.999985
529	2978431219													0.040835	0.008354	-9.631911	-0.721060	-0.692858	-0.004533	-0.692851	0.721074	-0.003142	0.005446	0.000875	-0.999985
530	2978439552													0.062788	-0.008884	-9.640151	-0.721055	-0.692863	-0.004521	-0.692856	0.721069	-0.003130	0.005429	0.000876	-0.999985
531	2978447885													0.051930	0.011316	-9.642176	-0.721071	-0.692846	-0.004533	-0.692840	0.721085	-0.003147	0.005449	0.000871	-0.999985
532	2978456218													0.031945	0.011509	-9.647669	-0.721076	-0.692841	-0.004540	-0.692834	0.721090	-0.003153	0.005459	0.000872	-0.999985
533	2978464551													0.075885	0.028912	-9.652948	-0.721079	-0.692838	-0.004537	-0.692832	0.721092	-0.003156	0.005458	0.000867	-0.999985
534	2978472884													0.050828	0.017346	-9.639358	-0.721079	-0.692838	-0.004537	-0.692832	0.721092	-0.003149	0.005454	0.000873	-0.999985
535	2978481217													0.063303	0.004499	-9.640043	-0.721078	-0.692839	-0.004538	-0.692832	0.721092	-0.003161	0.005463	0.000864	-0.999985
536	2978489550													0.051121	0.008219	-9.634479	-0.721080	-0.692837	-0.004550	-0.692831	0.721093	-0.003149	0.005463	0.000882	-0.999985
537	2978497883													0.057652	0.016952	-9.641732	-0.721086	-0.692831	-0.004545	-0.692825	0.721099	-0.003140	0.005453	0.000884	-0.999985
538	2978506216													0.057709	0.016573	-9.644886	-0.721085	-0.692831	-0.004558	-0.692825	0.721099	-0.003136	0.005460	0.000896	-0.999985
539	2978514549													0.055220	0.000586	-9.648943	-0.721101	-0.692815	-0.004565	-0.692809	0.721115	-0.003134	0.005463	0.000903	-0.999985
540	2978522882													0.035557	-0.001009	-9.644779	-0.721102	-0.692814	-0.004573	-0.692807	0.721116	-0.003125	0.005463	0.000915	-0.999985
541	2978531215													0.054218	0.010772	-9.630494	-0.721107	-0.692809	-0.004571	-0.692802	0.721121	-0.003128	0.005463	0.000911	-0.999985
542	2978539548													0.064669	0.012976	-9.636424	-0.721112	-0.692803	-0.004565	-0.692797	0.721126	-0.003125	0.005457	0.000909	-0.999985
543	2978547881													0.059597	0.005958	-9.657976	-0.721124	-0.692791	-0.004577	-0.692785	0.721138	-0.003132	0.005470	0.000912	-0.999985
544	2978556214													0.058675	0.032996	-9.658784	-0.721125	-0.692790	-0.004585	-0.692784	0.721139	-0.003109	0.005461	0.000934	-0.999985
545	2978564547													0.055270	0.002174	-9.653255	-0.721127	-0.692787	-0.004586	-0.692781	0.721141	-0.003090	0.005448	0.000949	-0.999985
546	2978572880													0.048532	-0.002318	-9.659006	-0.721137	-0.692777	-0.004577	-0.692771	0.721151	-0.003085	0.005438	0.000946	-0.999985
547	2978581213													0.044999	0.025565	-9.645988	-0.721137	-0.692777	-0.004580	-0.692771	0.721151	-0.003095	0.005447	0.000941	-0.999985
548	2978589546													0.057902	0.005079	-9.642963	-0.721136	-0.692778	-0.004578	-0.692772	0.721150	-0.003095	0.005445	0.000940	-0.999985
549	2978597879													0.050377	0.009542	-9.648255	-0.721139	-0.692775	-0.004562	-0.692769	0.721153	-0.003091	0.005431	0.000931	-0.999985
550	2978606212													0.052159	-0.006559	-9.652504	-0.721133	-0.692781	-0.004541	-0.692775	0.721147	-0.003101	0.005423	0.000910	-0.999985
551	2978614545													0.078946	0.006538	-9.654607	-0.721144	-0.692771	-0.004535	-0.692764	0.721158	-0.003096	0.005415	0.000909	-0.999985
552	2978622878													0.049626	0.006273	-9.645895	-0.721138	-0.692776	-0.004514	-0.692770	0.721152	-0.003110	0.005410	0.000884	-0.999985
553	2978631211													0.057537	-0.004506	-9.629586	-0.721146	-0.692768	-0.004500	-0.692762	0.721160	-0.003106	0.005396	0.000877	-0.999985
554	2978639544													0.073438	-0.000322	-9.627377	-0.721142	-0.692772	-0.004499	-0.692766	0.721156	-0.003096	0.005389	0.000884	-0.999985
555	2978647877													0.048618	0.010357	-9.613285	-0.721169	-0.692744	-0.004503	-0.692738	0.721183	-0.003086	0.005386	0.000894	-0.999985
556	2978656210													0.055048	-0.002554	-9.631732	-0.721169	-0.692744	-0.004497	-0.692738	0.721183	-0.003081	0.005378	0.000893	-0.999985
557	2978664543													0.036408	-0.004786	-9.636074	-0.721173	-0.692740	-0.004499	-0.692734	0.721187	-0.003083	0.005381	0.000893	-0.999985
558	2978672876													0.070255	0.004993	-9.635036	-0.721176	-0.692737	-0.004508	-0.692731	0.721190	-0.003088	0.005390	0.000895	-0.999985
559	2978681209													0.046715	0.009678	-9.632233	-0.721185	-0.692728	-0.004506	-0.692721	0.721199	-0.003088	0.005389	0.000894	-0.999985
560	2978689542													0.060535	0.029055	-9.672403	-0.721184	-0.692729	-0.004497	-0.692722	0.721198	-0.003106	0.005395	0.000876	-0.999985
561	2978697875													0.060878	-0.006437	-9.655044	-0.721192	-0.692721	-0.004485	-0.692714	0.721205	-0.003098	0.005381	0.000872	-0.999985
562	2978706208													0.038239	0.016287	-9.635538	-0.721197	-0.692715	-0.004493	-0.692709	0.721211	-0.003104	0.005390	0.000874	-0.999985
563	2978714541													0.046637	0.014628	-9.641081	-0.721197	-0.692715	-0.004507	-0.692709	0.721211	-0.003103	0.005400	0.000884	-0.999985
564	2978722874													0.039255	0.011216	-9.648992	-0.721196	-0.692716	-0.004497	-0.692710	0.721210	-0.003117	0.005402	0.000867	-0.999985
565	2978731207													0.055363	0.012617	-9.629643	-0.721198	-0.692715	-0.004486	-0.692708	0.721211	-0.003109	0.005389	0.000865	-0.999985
566	2978739540													0.040571	0.017446	-9.627234	-0.721199	-0.692713	-0.004473	-0.692707	0.721212	-0.003117	0.005385	0.000850	-0.999985
567	2978747873													0.040721	0.003541	-9.635809	-0.721204	-0.692708	-0.004463	-0.692701	0.721218	-0.003113	0.005376	0.000847	-0.999985
568	2978756206													0.060706	0.001760	-9.646082	-0.721208	-0.692705	-0.004470	-0.692698	0.721221	-0.003113	0.005380	0.000851	-0.999985
569	2978764539													0.047209	0.000579	-9.637991	-0.721206	-0.692707	-0.004467	-0.692700	0.721219	-0.003127	0.005387	0.000839	-0.999985
570	2978772872													0.051451	0.001960	-9.634023	-0.721204	-0.692708	-0.004470	-0.692701	0.721218	-0.003127	0.005390	0.000842	-0.999985
571	2978781205													0.046908	0.006352	-9.623535	-0.721199	-0.692714	-0.004478	-0.692707	0.721212	-0.003123	0.005393	0.000849	-0.999985
572	2978789538													0.066171	0.016688	-9.647368	-0.721207	-0.692706	-0.004476	-0.692699	0.721220	-0.003131	0.005396	0.000842	-0.999985
573	2978797871													0.051937	0.016673	-9.621296	-0.721205	-0.692707	-0.004475	-0.692700	0.721219	-0.003140	0.005403	0.000835	-0.999985
574	2978806204													0.041980	0.013862	-9.635523	-0.721209	-0.692703	-0.004477	-0.692696	0.721223	-0.003134	0.005400	0.000841	-0.999985
575	2978814537													0.029641	0.001681	-9.655337	-0.721221	-0.692690	-0.004484	-0.692684	0.721234	-0.003115	0.005392	0.000860	-0.999985
576	2978822870													0.037846	0.007968	-9.624293	-0.721221	-0.692691	-0.004483	-0.692684	0.721234	-0.003108	0.005387	0.000864	-0.999985
577	2978831203													0.062652	0.017689	-9.639851	-0.721234	-0.692677	-0.004478	-0.692671	0.721247	-0.003100	0.005377	0.000866	-0.999985
578	2978839536													0.054483	0.015686	-9.626618	-0.721229	-0.692683	-0.004476	-0.692676	0.721242	-0.003098	0.005374	0.000867	-0.999985
579	2978847869													0.047230	0.001953	-9.650795	-0.721239	-0.692672	-0.004490	-0.692665	0.721253	-0.003100	0.005385	0.000874	-0.999985
580	2978856202													0.044720	0.012553	-9.627040	-0.721236	-0.692675	-0.004488	-0.692669	0.721249	-0.003111	0.005392	0.000865	-0.999985
581	2978864535													0.060220	-0.000472	-9.628872	-0.721234	-0.692677	-0.004507	-0.692670	0.721248	-0.003102	0.005400	0.000884	-0.999985
582	2978872868													0.057073	0.006631	-9.637719	-0.721232	-0.692679	-0.004506	-0.692673	0.721245	-0.003102	0.005399	0.000884	-0.999985
583	2978881201													0.037002	-0.003662	-9.645680	-0.721231	-0.692680	-0.004489	-0.692674	0.721244	-0.003117	0.005396	0.000861	-0.999985
584	2978889534													0.054197	-0.002897	-9.634808	-0.721232	-0.692679	-0.004493	-0.692672	0.721246	-0.003109	0.005394	0.000870	-0.999985
585	2978897867													0.062223	0.000443	-9.643870	-0.721226	-0.692685	-0.004502	-0.692679	0.721240	-0.003103	0.005396	0.000881	-0.999985
586	2978906200													0.057552	0.009978	-9.616769	-0.721230	-0.692681	-0.004502	-0.692674	0.721244	-0.003095	0.005391	0.000887	-0.999985
587	2978914533													0.041565	0.010028	-9.645802	-0.721256	-0.692655	-0.004487	-0.692648	0.721269	-0.003091	0.005378	0.000878	-0.999985
588	2978922866													0.039705	0.006087	-9.642268	-0.721266	-0.692644	-0.004485	-0.692638	0.721279	-0.003096	0.005379	0.000874	-0.999985
589	2978931199													0.032510	0.002897	-9.626876	-0.721278	-0.692632	-0.004489	-0.692625	0.721291	-0.003079	0.005371	0.000888	-0.999985
590	2978939532													0.053625	0.013984	-9.623256	-0.721281	-0.692628	-0.004489	-0.692622	0.721294	-0.003075	0.005368	0.000891	-0.999985
591	2978947865													0.048160	-0.004556	-9.642898	-0.721300	-0.692608	-0.004483	-0.692602	0.721313	-0.003071	0.005361	0.000889	-0.999985
592	2978956198													0.058982	0.009127	-9.633735	-0.721298	-0.692610	-0.004480	-0.692604	0.721312	-0.003065	0.005354	0.000892	-0.999985
593	2978964531													0.044383	0.014241	-9.628184	-0.721284	-0.692625	-0.004473	-0.692619	0.721297	-0.003063	0.005348	0.000889	-0.999985
594	2978972864													0.044019	0.010314	-9.643799	-0.721284	-0.692625	-0.004478	-0.692619	0.721297	-0.003056	0.005346	0.000897	-0.999985
595	2978981197													0.056479	0.016222	-9.636259	-0.721290	-0.692619	-0.004484	-0.692613	0.721303	-0.003054	0.005350	0.000903	-0.999985
596	2978989530													0.055055	0.012875	-9.626404	-0.721295	-0.692614	-0.004494	-0.692608	0.721308	-0.003051	0.005355	0.000912	-0.999985
597	2978997863													0.053775	0.004477	-9.633163	-0.721293	-0.692615	-0.004519	-0.692609	0.721307	-0.003040	0.005365	0.000937	-0.999985
598	2979006196													0.055034	-0.015336	-9.639186	-0.721293	-0.692615	-0.004517	-0.692609	0.721306	-0.003042	0.005365	0.000934	-0.999985
599	2979014529													0.058747	0.006803	-9.636698	-0.721300	-0.692608	-0.004518	-0.692602	0.721314	-0.003040	0.005364	0.000936	-0.999985
600	2979022862													0.049991	0.003577	-9.622313	-0.721297	-0.692611	-0.004515	-0.692605	0.721310	-0.003044	0.005365	0.000931	-0.999985
601	2979031195													0.045850	0.008848	-9.653276	-0.721293	-0.692615	-0.004508	-0.692609	0.721307	-0.003049	0.005364	0.000923	-0.999985
602	2979039528													0.047688	0.014084	-9.649499	-0.721296	-0.692613	-0.004520	-0.692606	0.721309	-0.003058	0.005379	0.000925	-0.999985
603	2979047861													0.064111	0.013397	-9.643757	-0.721306	-0.692602	-0.004520	-0.692596	0.721320	-0.003053	0.005375	0.000929	-0.999985
604	2979056194													0.059397	0.004292	-9.658813	-0.721306	-0.692601	-0.004527	-0.692595	0.721320	-0.003045	0.005375	0.000939	-0.999985
605	2979064527													0.051851	0.003297	-9.632956	-0.721308	-0.692600	-0.004518	-0.692594	0.721321	-0.003043	0.005367	0.000934	-0.999985
606	2979072860													0.044076	0.010078	-9.641610	-0.721305	-0.692603	-0.004512	-0.692597	0.721318	-0.003038	0.005359	0.000934	-0.999985
607	2979081193													0.045063	0.005872	-9.625444	-0.721297	-0.692611	-0.004518	-0.692605	0.721311	-0.003042	0.005366	0.000935	-0.999985
608	2979089526													0.060649	0.014599	-9.633077	-0.721300	-0.692608	-0.004530	-0.692602	0.721314	-0.003043	0.005375	0.000942	-0.999985
609	2979097859													0.055134	0.014542	-9.630716	-0.721302	-0.692606	-0.004528	-0.692600	0.721316	-0.003031	0.005365	0.000950	-0.999985
610	2979106192													0.036952	0.015915	-9.622626	-0.721300	-0.692608	-0.004531	-0.692602	0.721313	-0.003029	0.005366	0.000953	-0.999985
611	2979114525													0.056550	0.018655	-9.642734	-0.721298	-0.692610	-0.004519	-0.692604	0.721311	-0.003029	0.005357	0.000945	-0.999985
612	2979122858													0.047938	-0.000300	-9.647375	-0.721286	-0.692622	-0.004530	-0.692616	0.721300	-0.003027	0.005364	0.000954	-0.999985
613	2979131191													0.057358	0.032145	-9.631010	-0.721293	-0.692615	-0.004521	-0.692609	0.721307	-0.003022	0.005354	0.000952	-0.999985
614	2979139524													0.055198	0.019706	-9.656546	-0.721291	-0.692618	-0.004524	-0.692612	0.721304	-0.003027	0.005360	0.000950	-0.999985
615	2979147857													0.052466	0.019205	-9.641546	-0.721291	-0.692618	-0.004532	-0.692612	0.721304	-0.003026	0.005365	0.000956	-0.999985
616	2979156190													0.046336	0.012668	-9.620646	-0.721304	-0.692604	-0.004532	-0.692598	0.721317	-0.003050	0.005382	0.000938	-0.999985
617	2979164523													0.049676	0.014878	-9.622011	-0.721301	-0.692607	-0.004521	-0.692601	0.721315	-0.003052	0.005375	0.000930	-0.999985
618	2979172856													0.074375	0.005458	-9.648885	-0.721306	-0.692602	-0.004527	-0.692596	0.721319	-0.003054	0.005381	0.000933	-0.999985
619	2979181189													0.041486	0.006659	-9.638055	-0.721295	-0.692613	-0.004538	-0.692607	0.721309	-0.003054	0.005388	0.000940	-0.999985
620	2979189522													0.057301	0.005093	-9.644958	-0.721290	-0.692618	-0.004522	-0.692612	0.721304	-0.003056	0.005378	0.000928	-0.999985
621	2979197855													0.056429	0.021659	-9.645060	-0.721297	-0.692611	-0.004517	-0.692605	0.721311	-0.003056	0.005375	0.000924	-0.999985
622	2979206188													0.063224	0.011852	-9.654185	-0.721295	-0.692613	-0.004520	-0.692607	0.721309	-0.003055	0.005377	0.000927	-0.999985
623	2979214521													0.044720	-0.001044	-9.627026	-0.721296	-0.692612	-0.004524	-0.692606	0.721310	-0.003058	0.005382	0.000928	-0.999985
624	2979222854													0.067072	0.006588	-9.651832	-0.721295	-0.692613	-0.004526	-0.692607	0.721309	-0.003047	0.005375	0.000937	-0.999985
625	2979231187													0.045342	0.004184	-9.641217	-0.721301	-0.692607	-0.004540	-0.692601	0.721314	-0.003032	0.005375	0.000957	-0.999985
626	2979239520													0.044620	0.005036	-9.629559	-0.721300	-0.692608	-0.004541	-0.692602	0.721314	-0.003047	0.005386	0.000947	-0.999985
627	2979247853													0.052545	0.013025	-9.625158	-0.721310	-0.692597	-0.004533	-0.692591	0.721324	-0.003037	0.005374	0.000949	-0.999985
628	2979256186													0.062387	0.006295	-9.629329	-0.721315	-0.692592	-0.004548	-0.692586	0.721329	-0.003020	0.005373	0.000971	-0.999985
629	2979264519													0.039069	0.011838	-9.654222	-0.721326	-0.692581	-0.004555	-0.692575	0.721340	-0.003025	0.005381	0.000973	-0.999985
630	2979272852													0.047545	0.023676	-9.634207	-0.721330	-0.692576	-0.004566	-0.692570	0.721344	-0.003026	0.005389	0.000979	-0.999985
631	2979281185													0.044355	0.001023	-9.639845	-0.721326	-0.692581	-0.004556	-0.692575	0.721340	-0.003033	0.005387	0.000968	-0.999985
632	2979289518													0.040721	0.007046	-9.641203	-0.721330	-0.692576	-0.004556	-0.692570	0.721344	-0.003020	0.005378	0.000977	-0.999985
633	2979297851													0.055957	0.012789	-9.654964	-0.721337	-0.692569	-0.004549	-0.692563	0.721351	-0.003029	0.005380	0.000965	-0.999985
634	2979306184													0.049283	0.010550	-9.643921	-0.721339	-0.692567	-0.004547	-0.692561	0.721353	-0.003031	0.005379	0.000963	-0.999985
635	2979314517													0.050285	0.011667	-9.662083	-0.721337	-0.692569	-0.004551	-0.692563	0.721351	-0.003044	0.005391	0.000956	-0.999985
636	2979322850													0.051086	0.004056	-9.638213	-0.721330	-0.692577	-0.004563	-0.692571	0.721344	-0.003041	0.005398	0.000966	-0.999985
637	2979331183													0.052738	-0.004420	-9.629187	-0.721341	-0.692565	-0.004569	-0.692559	0.721355	-0.003038	0.005400	0.000973	-0.999985
638	2979339516													0.056472	0.012396	-9.629486	-0.721343	-0.692563	-0.004565	-0.692557	0.721357	-0.003043	0.005401	0.000967	-0.999985
639	2979347849													0.051865	0.008669	-9.658727	-0.721344	-0.692562	-0.004571	-0.692556	0.721358	-0.003037	0.005400	0.000975	-0.999985
640	2979356182													0.048503	0.007289	-9.639393	-0.721335	-0.692571	-0.004571	-0.692565	0.721349	-0.003032	0.005398	0.000979	-0.999985
641	2979364515													0.054212	0.000952	-9.637033	-0.721335	-0.692571	-0.004559	-0.692565	0.721349	-0.003024	0.005383	0.000976	-0.999985
642	2979372848													0.041022	0.016767	-9.645094	-0.721338	-0.692568	-0.004550	-0.692562	0.721352	-0.003025	0.005378	0.000969	-0.999985
643	2979381181													0.054691	0.003333	-9.634064	-0.721344	-0.692562	-0.004549	-0.692556	0.721358	-0.003022	0.005374	0.000970	-0.999985
644	2979389514													0.067644	-0.000622	-9.636425	-0.721351	-0.692555	-0.004529	-0.692549	0.721364	-0.003025	0.005362	0.000955	-0.999985
645	2979397847													0.055413	-0.012711	-9.670064	-0.721347	-0.692559	-0.004519	-0.692553	0.721361	-0.003022	0.005353	0.000950	-0.999985
646	2979406180													0.028976	0.005801	-9.654436	-0.721348	-0.692558	-0.004517	-0.692552	0.721361	-0.003027	0.005355	0.000944	-0.999985
647	2979414513													0.039033	0.007117	-9.635845	-0.721347	-0.692559	-0.004509	-0.692553	0.721361	-0.003021	0.005345	0.000944	-0.999985
648	2979422846													0.054326	-0.019299	-9.626067	-0.721355	-0.692550	-0.004518	-0.692545	0.721369	-0.003010	0.005344	0.000958	-0.999985
649	2979431179													0.057487	0.018025	-9.631017	-0.721355	-0.692550	-0.004534	-0.692545	0.721369	-0.002994	0.005344	0.000980	-0.999985
650	2979439512													0.045857	0.039362	-9.638456	-0.721353	-0.692553	-0.004520	-0.692547	0.721366	-0.002995	0.005335	0.000969	-0.999985
651	2979447845													0.079003	0.031773	-9.641367	-0.721358	-0.692547	-0.004521	-0.692541	0.721372	-0.003002	0.005340	0.000965	-0.999985
652	2979456178													0.041501	0.008540	-9.661502	-0.721372	-0.692533	-0.004522	-0.692527	0.721385	-0.002998	0.005338	0.000969	-0.999985
653	2979464511													0.046486	-0.004507	-9.643776	-0.721364	-0.692541	-0.004522	-0.692535	0.721378	-0.002996	0.005337	0.000970	-0.999985
654	2979472844													0.047953	0.000150	-9.649470	-0.721358	-0.692548	-0.004530	-0.692542	0.721371	-0.002999	0.005345	0.000974	-0.999985
655	2979481177													0.049211	0.023053	-9.636338	-0.721364	-0.692541	-0.004530	-0.692535	0.721378	-0.003011	0.005353	0.000965	-0.999985
656	2979489510													0.052137	0.022088	-9.646996	-0.721359	-0.692546	-0.004540	-0.692541	0.721373	-0.003003	0.005355	0.000977	-0.999985
657	2979497843													0.029706	0.004907	-9.643770	-0.721364	-0.692542	-0.004554	-0.692536	0.721377	-0.002989	0.005356	0.000998	-0.999985
658	2979506176													0.057888	-0.008855	-9.644943	-0.721362	-0.692543	-0.004565	-0.692537	0.721376	-0.002990	0.005363	0.001005	-0.999985
659	2979514509													0.033783	-0.005064	-9.637883	-0.721374	-0.692531	-0.004573	-0.692525	0.721388	-0.002982	0.005364	0.001015	-0.999985
660	2979522842													0.040127	0.005844	-9.631496	-0.721372	-0.692533	-0.004580	-0.692527	0.721385	-0.002981	0.005369	0.001022	-0.999985
661	2979531175													0.041136	0.020336	-9.627283	-0.721375	-0.692530	-0.004586	-0.692524	0.721389	-0.002982	0.005374	0.001025	-0.999985
662	2979539508													0.046908	0.011244	-9.644872	-0.721371	-0.692534	-0.004599	-0.692528	0.721385	-0.002974	0.005377	0.001040	-0.999985
663	2979547841													0.062466	-0.006738	-9.646296	-0.721363	-0.692542	-0.004596	-0.692536	0.721377	-0.002966	0.005369	0.001043	-0.999985
664	2979556174													0.034441	0.022331	-9.629272	-0.721375	-0.692529	-0.004595	-0.692524	0.721389	-0.002975	0.005375	0.001036	-0.999985
665	2979564507													0.055893	0.025500	-9.642025	-0.721383	-0.692521	-0.004592	-0.692515	0.721397	-0.002985	0.005380	0.001027	-0.999985
666	2979572840													0.054791	0.014570	-9.645423	-0.721382	-0.692522	-0.004593	-0.692517	0.721396	-0.002989	0.005383	0.001025	-0.999985
667	2979581173													0.055177	0.011802	-9.645251	-0.721387	-0.692517	-0.004599	-0.692511	0.721401	-0.002981	0.005382	0.001035	-0.999985
668	2979589506													0.043053	0.010672	-9.656338	-0.721386	-0.692518	-0.004587	-0.692512	0.721400	-0.002991	0.005380	0.001019	-0.999985
669	2979597839													0.053074	0.003920	-9.640337	-0.721395	-0.692509	-0.004579	-0.692503	0.721408	-0.003008	0.005386	0.001001	-0.999985
670	2979606172													0.041372	0.019241	-9.653742	-0.721396	-0.692508	-0.004586	-0.692502	0.721410	-0.002997	0.005383	0.001014	-0.999985
671	2979614505													0.040878	0.007103	-9.641152	-0.721409	-0.692494	-0.004571	-0.692488	0.721423	-0.003001	0.005376	0.001001	-0.999985
672	2979622838													0.052495	-0.004692	-9.623792	-0.721400	-0.692504	-0.004574	-0.692498	0.721414	-0.003012	0.005385	0.000994	-0.999985
673	2979631171													0.063632	0.019878	-9.643005	-0.721399	-0.692504	-0.004569	-0.692498	0.721413	-0.003023	0.005389	0.000983	-0.999985
674	2979639504													0.044062	0.013025	-9.638542	-0.721409	-0.692494	-0.004566	-0.692488	0.721423	-0.003015	0.005382	0.000987	-0.999985
675	2979647837													0.058653	-0.003962	-9.642126	-0.721415	-0.692488	-0.004569	-0.692482	0.721429	-0.003038	0.005400	0.000973	-0.999985
676	2979656170													0.055463	0.002510	-9.637169	-0.721419	-0.692484	-0.004581	-0.692478	0.721433	-0.003043	0.005412	0.000977	-0.999985
677	2979664503													0.042144	0.009670	-9.640345	-0.721430	-0.692472	-0.004566	-0.692466	0.721444	-0.003054	0.005409	0.000958	-0.999985
678	2979672836													0.057108	-0.004256	-9.634615	-0.721429	-0.692473	-0.004564	-0.692467	0.721443	-0.003060	0.005412	0.000953	-0.999985
679	2979681169													0.056872	-0.005479	-9.630273	-0.721426	-0.692476	-0.004561	-0.692470	0.721440	-0.003059	0.005409	0.000952	-0.999985
680	2979689502													0.040650	-0.000708	-9.628936	-0.721428	-0.692475	-0.004559	-0.692468	0.721442	-0.003067	0.005413	0.000944	-0.999985
681	2979697835													0.044076	0.007303	-9.641332	-0.721432	-0.692470	-0.004573	-0.692464	0.721446	-0.003076	0.005429	0.000948	-0.999985
682	2979706168													0.041093	0.011659	-9.650009	-0.721427	-0.692475	-0.004575	-0.692469	0.721441	-0.003095	0.005444	0.000935	-0.999985
683	2979714501													0.051086	0.017925	-9.651925	-0.721434	-0.692468	-0.004565	-0.692462	0.721448	-0.003098	0.005439	0.000926	-0.999985
684	2979722834													0.044612	0.008204	-9.637168	-0.721426	-0.692476	-0.004571	-0.692470	0.721440	-0.003105	0.005448	0.000926	-0.999985
685	2979731167													0.049519	0.005536	-9.637161	-0.721428	-0.692475	-0.004565	-0.692468	0.721441	-0.003106	0.005444	0.000921	-0.999985
686	2979739500													0.045242	0.021194	-9.631789	-0.721424	-0.692478	-0.004560	-0.692472	0.721438	-0.003110	0.005443	0.000914	-0.999985
687	2979747833													0.052430	0.012046	-9.631396	-0.721424	-0.692479	-0.004568	-0.692472	0.721438	-0.003099	0.005441	0.000928	-0.999985
688	2979756166													0.041408	0.012932	-9.651181	-0.721424	-0.692478	-0.004563	-0.692472	0.721438	-0.003100	0.005439	0.000924	-0.999985
689	2979764499													0.038032	0.006123	-9.651610	-0.721426	-0.692477	-0.004544	-0.692470	0.721440	-0.003087	0.005416	0.000919	-0.999985
690	2979772832													0.057072	0.021522	-9.638656	-0.721428	-0.692474	-0.004544	-0.692468	0.721442	-0.003090	0.005417	0.000917	-0.999985
691	2979781165													0.053854	0.009563	-9.638706	-0.721432	-0.692471	-0.004555	-0.692465	0.721445	-0.003087	0.005423	0.000927	-0.999985
692	2979789498													0.039262	0.019963	-9.633592	-0.721436	-0.692467	-0.004554	-0.692460	0.721449	-0.003082	0.005420	0.000929	-0.999985
693	2979797831													0.045750	0.009663	-9.632026	-0.721429	-0.692473	-0.004562	-0.692467	0.721443	-0.003081	0.005425	0.000936	-0.999985
694	2979806164													0.038153	-0.012847	-9.634293	-0.721436	-0.692466	-0.004554	-0.692460	0.721450	-0.003077	0.005416	0.000933	-0.999985
695	2979814497													0.052130	0.006480	-9.637340	-0.721440	-0.692462	-0.004549	-0.692455	0.721454	-0.003070	0.005407	0.000935	-0.999985
696	2979822830													0.045928	0.013433	-9.645037	-0.721448	-0.692453	-0.004550	-0.692447	0.721462	-0.003071	0.005409	0.000935	-0.999985
697	2979831163													0.057573	0.009756	-9.625066	-0.721449	-0.692452	-0.004563	-0.692446	0.721463	-0.003071	0.005419	0.000944	-0.999985
698	2979839496													0.055249	0.007396	-9.637519	-0.721445	-0.692457	-0.004547	-0.692451	0.721459	-0.003074	0.005409	0.000931	-0.999985
699	2979847829													0.033718	0.018583	-9.652368	-0.721441	-0.692461	-0.004545	-0.692455	0.721455	-0.003073	0.005407	0.000931	-0.999985
700	2979856162													0.054791	0.015972	-9.620116	-0.721442	-0.692460	-0.004546	-0.692454	0.721455	-0.003078	0.005411	0.000928	-0.999985
701	2979864495													0.066350	0.011931	-9.640416	-0.721451	-0.692451	-0.004554	-0.692445	0.721464	-0.003088	0.005424	0.000925	-0.999985
702	2979872828													0.051357	0.010636	-9.633370	-0.721451	-0.692451	-0.004556	-0.692445	0.721465	-0.003086	0.005424	0.000929	-0.999985
703	2979881161													0.061586	0.012525	-9.608442	-0.721449	-0.692453	-0.004561	-0.692446	0.721463	-0.003082	0.005425	0.000934	-0.999985
704	2979889494													0.061879	0.004256	-9.631174	-0.721449	-0.692452	-0.004561	-0.692446	0.721463	-0.003075	0.005419	0.000940	-0.999985
705	2979897827													0.033196	0.016029	-9.638356	-0.721452	-0.692449	-0.004562	-0.692443	0.721466	-0.003060	0.005410	0.000951	-0.999985
706	2979906160													0.047602	-0.006402	-9.610731	-0.721455	-0.692447	-0.004562	-0.692441	0.721468	-0.003075	0.005421	0.000940	-0.999985
707	2979914493													0.059218	0.000079	-9.645616	-0.721457	-0.692444	-0.004570	-0.692438	0.721471	-0.003070	0.005423	0.000949	-0.999985
708	2979922826													0.045356	0.001123	-9.644084	-0.721450	-0.692452	-0.004574	-0.692446	0.721463	-0.003079	0.005432	0.000946	-0.999985
709	2979931159													0.045349	0.010951	-9.631024	-0.721455	-0.692446	-0.004567	-0.692440	0.721469	-0.003082	0.005429	0.000939	-0.999985
710	2979939492													0.050943	0.020300	-9.643599	-0.721464	-0.692437	-0.004581	-0.692431	0.721478	-0.003068	0.005430	0.000959	-0.999985
711	2979947825													0.046751	-0.001287	-9.671532	-0.721467	-0.692434	-0.004581	-0.692428	0.721481	-0.003069	0.005430	0.000958	-0.999985
712	2979956158													0.051472	0.020078	-9.626625	-0.721476	-0.692425	-0.004580	-0.692419	0.721489	-0.003080	0.005437	0.000949	-0.999985
713	2979964491													0.055642	-0.008083	-9.636374	-0.721475	-0.692426	-0.004572	-0.692419	0.721489	-0.003089	0.005437	0.000937	-0.999985
714	2979972824													0.072308	-0.002962	-9.655421	-0.721468	-0.692432	-0.004585	-0.692426	0.721482	-0.003092	0.005450	0.000944	-0.999985
715	2979981157													0.052173	0.002718	-9.624300	-0.721460	-0.692441	-0.004584	-0.692435	0.721474	-0.003100	0.005454	0.000938	-0.999985
716	2979989490													0.039927	0.027767	-9.647969	-0.721471	-0.692429	-0.004579	-0.692423	0.721485	-0.003105	0.005454	0.000930	-0.999985
717	2979997823													0.032796	0.030249	-9.626661	-0.721399	-0.692504	-0.004569	-0.692498	0.721413	-0.003078	0.005427	0.000943	-0.999985
718	2980006156													0.048282	-0.004277	-9.656524	-0.721395	-0.692509	-0.004574	-0.692503	0.721409	-0.003079	0.005432	0.000946	-0.999985
719	2980014489													0.054397	0.008677	-9.656646	-0.721395	-0.692509	-0.004589	-0.692502	0.721409	-0.003081	0.005444	0.000955	-0.999985
720	2980022822													0.056464	-0.001696	-9.637913	-0.721407	-0.692496	-0.004592	-0.692490	0.721421	-0.003085	0.005449	0.000955	-0.999985
721	2980031155													0.047323	-0.005594	-9.633026	-0.721402	-0.692501	-0.004581	-0.692495	0.721416	-0.003088	0.005444	0.000945	-0.999985
722	2980039488													0.045785	0.017567	-9.649549	-0.721404	-0.692500	-0.004575	-0.692493	0.721418	-0.003090	0.005441	0.000939	-0.999985
723	2980047821													0.039555	0.005615	-9.648434	-0.721411	-0.692492	-0.004594	-0.692486	0.721425	-0.003069	0.005439	0.000967	-0.999985
724	2980056154													0.051000	0.004549	-9.631797	-0.721411	-0.692492	-0.004590	-0.692486	0.721425	-0.003052	0.005424	0.000977	-0.999985
725	2980064487													0.048997	-0.007417	-9.634014	-0.721411	-0.692492	-0.004571	-0.692486	0.721425	-0.003053	0.005411	0.000963	-0.999985
726	2980072820													0.039949	-0.000350	-9.637390	-0.721397	-0.692507	-0.004578	-0.692500	0.721411	-0.003060	0.005422	0.000962	-0.999985
727	2980081153													0.054755	-0.009356	-9.655315	-0.721401	-0.692502	-0.004569	-0.692496	0.721415	-0.003056	0.005413	0.000959	-0.999985
728	2980089486													0.041336	-0.004664	-9.638177	-0.721399	-0.692504	-0.004558	-0.692498	0.721413	-0.003055	0.005404	0.000953	-0.999985
729	2980097819													0.064297	0.012002	-9.661524	-0.721400	-0.692504	-0.004561	-0.692498	0.721413	-0.003056	0.005406	0.000954	-0.999985
730	2980106152													0.054476	0.001681	-9.638100	-0.721400	-0.692504	-0.004562	-0.692498	0.721413	-0.003057	0.005408	0.000954	-0.999985
731	2980114485													0.064562	0.016509	-9.631097	-0.721387	-0.692518	-0.004565	-0.692511	0.721400	-0.003054	0.005408	0.000958	-0.999985
732	2980122818													0.057874	0.011859	-9.619887	-0.721384	-0.692520	-0.004556	-0.692514	0.721398	-0.003056	0.005403	0.000951	-0.999985
733	2980131151													0.051744	0.002575	-9.652919	-0.721387	-0.692517	-0.004566	-0.692511	0.721401	-0.003052	0.005407	0.000960	-0.999985
734	2980139484													0.063746	0.015522	-9.655387	-0.721385	-0.692519	-0.004560	-0.692513	0.721399	-0.003051	0.005403	0.000957	-0.999985
735	2980147817													0.053417	-0.008963	-9.629851	-0.721384	-0.692520	-0.004558	-0.692514	0.721398	-0.003056	0.005404	0.000953	-0.999985
736	2980156150													0.048425	-0.002725	-9.629057	-0.721385	-0.692520	-0.004568	-0.692514	0.721398	-0.003047	0.005405	0.000966	-0.999985
737	2980164483													0.047202	0.007739	-9.644636	-0.721387	-0.692518	-0.004555	-0.692511	0.721400	-0.003057	0.005403	0.000949	-0.999985
738	2980172816													0.063939	0.010407	-9.643349	-0.721386	-0.692519	-0.004541	-0.692513	0.721399	-0.003056	0.005392	0.000940	-0.999985
739	2980181149													0.040077	0.017617	-9.623914	-0.721385	-0.692519	-0.004538	-0.692513	0.721399	-0.003064	0.005396	0.000932	-0.999985
740	2980189482													0.053296	0.003226	-9.625459	-0.721387	-0.692518	-0.004524	-0.692511	0.721400	-0.003072	0.005391	0.000917	-0.999985
741	2980197815													0.060850	0.007919	-9.647326	-0.721392	-0.692512	-0.004519	-0.692506	0.721405	-0.003073	0.005388	0.000913	-0.999985
742	2980206148													0.037095	0.007217	-9.630473	-0.721392	-0.692513	-0.004524	-0.692506	0.721405	-0.003073	0.005391	0.000916	-0.999985
743	2980214481													0.046479	0.002046	-9.630430	-0.721389	-0.692515	-0.004521	-0.692509	0.721403	-0.003067	0.005386	0.000918	-0.999985
744	2980222814													0.041951	0.009148	-9.654135	-0.721387	-0.692517	-0.004536	-0.692511	0.721401	-0.003068	0.005397	0.000928	-0.999985
745	2980231147													0.043124	0.018519	-9.649557	-0.721379	-0.692525	-0.004543	-0.692519	0.721393	-0.003052	0.005391	0.000944	-0.999985
746	2980239480													0.041866	0.005200	-9.635780	-0.721386	-0.692519	-0.004545	-0.692513	0.721399	-0.003049	0.005391	0.000948	-0.999985
747	2980247813													0.051665	0.014191	-9.637883	-0.721392	-0.692512	-0.004530	-0.692506	0.721406	-0.003049	0.005379	0.000938	-0.999985
748	2980256146													0.056779	0.001359	-9.650915	-0.721397	-0.692507	-0.004530	-0.692501	0.721411	-0.003050	0.005380	0.000937	-0.999985
749	2980264479													0.044884	0.029942	-9.645174	-0.721391	-0.692513	-0.004534	-0.692507	0.721405	-0.003046	0.005380	0.000942	-0.999985
750	2980272812													0.061536	0.013998	-9.635051	-0.721394	-0.692510	-0.004525	-0.692504	0.721408	-0.003042	0.005371	0.000939	-0.999985
751	2980281145													0.047073	0.008605	-9.648963	-0.721405	-0.692499	-0.004522	-0.692493	0.721418	-0.003036	0.005364	0.000941	-0.999985
752	2980289478													0.037831	0.023332	-9.656088	-0.721408	-0.692495	-0.004518	-0.692489	0.721422	-0.003040	0.005365	0.000936	-0.999985
753	2980297811													0.061336	0.006330	-9.642983	-0.721413	-0.692490	-0.004526	-0.692484	0.721427	-0.003048	0.005376	0.000935	-0.999985
754	2980306144													0.064168	0.015937	-9.634243	-0.721405	-0.692498	-0.004522	-0.692492	0.721419	-0.003052	0.005376	0.000930	-0.999985
755	2980314477													0.047337	0.027316	-9.666287	-0.721409	-0.692494	-0.004516	-0.692488	0.721423	-0.003036	0.005360	0.000937	-0.999985
756	2980322810													0.052151	0.025128	-9.642977	-0.721405	-0.692498	-0.004517	-0.692492	0.721419	-0.003048	0.005369	0.000929	-0.999985
757	2980331143													0.047810	0.018934	-9.651903	-0.721412	-0.692491	-0.004511	-0.692485	0.721426	-0.003052	0.005367	0.000922	-0.999985
758	2980339476													0.049905	-0.001896	-9.632390	-0.721410	-0.692494	-0.004505	-0.692487	0.721424	-0.003043	0.005357	0.000924	-0.999985
759	2980347809													0.044748	0.012188	-9.649171	-0.721412	-0.692491	-0.004498	-0.692485	0.721426	-0.003041	0.005351	0.000921	-0.999985
760	2980356142													0.053675	0.001044	-9.641260	-0.721412	-0.692491	-0.004483	-0.692485	0.721426	-0.003053	0.005349	0.000902	-0.999985
761	2980364475													0.063138	0.014499	-9.650050	-0.721406	-0.692498	-0.004483	-0.692492	0.721419	-0.003052	0.005348	0.000903	-0.999985
762	2980372808													0.043704	0.002883	-9.642082	-0.721411	-0.692493	-0.004476	-0.692487	0.721424	-0.003049	0.005340	0.000900	-0.999985
763	2980381141													0.053468	0.003806	-9.646768	-0.721413	-0.692491	-0.004483	-0.692484	0.721426	-0.003038	0.005338	0.000913	-0.999985
764	2980389474													0.061235	0.006609	-9.645137	-0.721409	-0.692495	-0.004483	-0.692489	0.721422	-0.003031	0.005333	0.000918	-0.999985
765	2980397807													0.031787	0.030342	-9.649014	-0.721418	-0.692486	-0.004471	-0.692479	0.721431	-0.003041	0.005331	0.000902	-0.999985
766	2980406140													0.065427	0.026144	-9.639343	-0.721415	-0.692488	-0.004470	-0.692482	0.721429	-0.003036	0.005327	0.000905	-0.999985
767	2980414473													0.053124	-0.009885	-9.629829	-0.721432	-0.692471	-0.004463	-0.692465	0.721445	-0.003036	0.005322	0.000900	-0.999985
768	2980422806													0.056901	0.009441	-9.647333	-0.721431	-0.692472	-0.004455	-0.692466	0.721444	-0.003034	0.005315	0.000896	-0.999985
769	2980431139													0.042195	0.019720	-9.642262	-0.721427	-0.692476	-0.004454	-0.692470	0.721440	-0.003032	0.005313	0.000896	-0.999985
770	2980439472													0.055613	0.016480	-9.652054	-0.721435	-0.692468	-0.004455	-0.692461	0.721448	-0.003032	0.005313	0.000898	-0.999985
771	2980447805													0.038883	0.025722	-9.643649	-0.721440	-0.692463	-0.004458	-0.692457	0.721453	-0.003020	0.005308	0.000909	-0.999986
772	2980456138													0.056121	0.000451	-9.620102	-0.721445	-0.692458	-0.004459	-0.692452	0.721458	-0.003018	0.005307	0.000911	-0.999986
773	2980464471													0.048089	-0.004220	-9.643856	-0.721438	-0.692465	-0.004465	-0.692459	0.721451	-0.003020	0.005313	0.000913	-0.999985
774	2980472804													0.056758	0.005150	-9.657604	-0.721435	-0.692467	-0.004468	-0.692461	0.721449	-0.003015	0.005311	0.000919	-0.999985
775	2980481137													0.041715	0.012403	-9.624708	-0.721430	-0.692473	-0.004453	-0.692467	0.721443	-0.003010	0.005297	0.000912	-0.999986
776	2980489470													0.057001	0.009921	-9.641009	-0.721422	-0.692482	-0.004441	-0.692476	0.721435	-0.003008	0.005287	0.000906	-0.999986
777	2980497803													0.044255	0.007661	-9.647798	-0.721417	-0.692487	-0.004445	-0.692481	0.721430	-0.003013	0.005293	0.000905	-0.999986
778	2980506136													0.049026	0.018111	-9.645580	-0.721411	-0.692493	-0.004437	-0.692487	0.721424	-0.003019	0.005292	0.000895	-0.999986
779	2980514469													0.046057	0.027968	-9.648341	-0.721408	-0.692497	-0.004434	-0.692491	0.721421	-0.003020	0.005290	0.000892	-0.999986
780	2980522802													0.050885	0.025457	-9.628178	-0.721407	-0.692497	-0.004462	-0.692491	0.721420	-0.003013	0.005305	0.000916	-0.999986
781	2980531135													0.041193	0.004435	-9.647432	-0.721408	-0.692496	-0.004476	-0.692490	0.721421	-0.003015	0.005317	0.000925	-0.999985
782	2980539468													0.032753	0.017825	-9.638577	-0.721409	-0.692495	-0.004478	-0.692489	0.721422	-0.003010	0.005315	0.000929	-0.999985
783	2980547801													0.040221	0.012053	-9.628864	-0.721418	-0.692486	-0.004477	-0.692480	0.721431	-0.002995	0.005303	0.000940	-0.999985
784	2980556134													0.052924	-0.002897	-9.639879	-0.721417	-0.692487	-0.004483	-0.692481	0.721430	-0.003001	0.005313	0.000939	-0.999985
785	2980564467													0.058446	-0.007189	-9.643999	-0.721410	-0.692494	-0.004477	-0.692488	0.721423	-0.003010	0.005314	0.000929	-0.999985
786	2980572800													0.068031	-0.004220	-9.655179	-0.721414	-0.692489	-0.004462	-0.692483	0.721427	-0.003030	0.005317	0.000904	-0.999985
787	2980581133													0.055156	0.009020	-9.643006	-0.721415	-0.692489	-0.004471	-0.692483	0.721428	-0.003029	0.005324	0.000911	-0.999985
788	2980589466													0.060413	0.004320	-9.653434	-0.721419	-0.692485	-0.004472	-0.692479	0.721432	-0.003034	0.005328	0.000908	-0.999985
789	2980597799													0.053754	-0.000350	-9.642233	-0.721430	-0.692473	-0.004453	-0.692467	0.721444	-0.003024	0.005307	0.000901	-0.999986
790	2980606132													0.042681	0.003369	-9.638935	-0.721429	-0.692474	-0.004459	-0.692468	0.721443	-0.003021	0.005309	0.000908	-0.999985
791	2980614465													0.054254	0.007525	-9.636489	-0.721434	-0.692468	-0.004453	-0.692462	0.721448	-0.003022	0.005305	0.000904	-0.999986
792	2980622798													0.073367	-0.004313	-9.657518	-0.721433	-0.692470	-0.004456	-0.692464	0.721446	-0.003026	0.005310	0.000903	-0.999985
793	2980631131													0.057216	0.000708	-9.636088	-0.721435	-0.692468	-0.004440	-0.692462	0.721448	-0.003013	0.005290	0.000900	-0.999986
794	2980639464													0.058704	0.016144	-9.653227	-0.721440	-0.692463	-0.004439	-0.692457	0.721453	-0.003006	0.005284	0.000905	-0.999986
795	2980647797													0.056129	0.008319	-9.651482	-0.721444	-0.692459	-0.004433	-0.692453	0.721457	-0.003013	0.005284	0.000896	-0.999986
796	2980656130													0.040356	0.016587	-9.637747	-0.721450	-0.692453	-0.004435	-0.692447	0.721463	-0.003010	0.005283	0.000900	-0.999986
797	2980664463													0.046658	0.003241	-9.642276	-0.721460	-0.692442	-0.004436	-0.692436	0.721473	-0.003015	0.005288	0.000896	-0.999986
798	2980672796													0.035399	0.011430	-9.648856	-0.721456	-0.692446	-0.004434	-0.692440	0.721469	-0.003007	0.005281	0.000901	-0.999986
799	2980681129													0.052395	0.004199	-9.643613	-0.721458	-0.692444	-0.004434	-0.692438	0.721471	-0.003008	0.005281	0.000900	-0.999986
800	2980689462													0.045907	0.007589	-9.663792	-0.721455	-0.692448	-0.004429	-0.692442	0.721468	-0.003020	0.005286	0.000888	-0.999986
801	2980697795													0.046486	0.000215	-9.619765	-0.721457	-0.692445	-0.004429	-0.692439	0.721470	-0.003020	0.005287	0.000888	-0.999986
802	2980706128													0.043439	-0.003669	-9.651196	-0.721461	-0.692441	-0.004440	-0.692435	0.721474	-0.003009	0.005287	0.000904	-0.999986
803	2980714461													0.047559	0.000558	-9.647411	-0.721460	-0.692442	-0.004448	-0.692436	0.721473	-0.003001	0.005288	0.000915	-0.999986
804	2980722794													0.052187	0.016287	-9.645580	-0.721463	-0.692439	-0.004458	-0.692433	0.721476	-0.002997	0.005291	0.000925	-0.999986
805	2980731127													0.055241	0.002310	-9.658405	-0.721473	-0.692429	-0.004469	-0.692423	0.721486	-0.002993	0.005297	0.000935	-0.999986
806	2980739460													0.051150	0.013197	-9.632555	-0.721472	-0.692429	-0.004470	-0.692423	0.721486	-0.002994	0.005298	0.000934	-0.999986
807	2980747793													0.046780	0.017868	-9.635931	-0.721484	-0.692417	-0.004468	-0.692411	0.721497	-0.003007	0.005306	0.000924	-0.999985
808	2980756126													0.051722	0.012510	-9.635709	-0.721478	-0.692423	-0.004484	-0.692417	0.721492	-0.003001	0.005313	0.000940	-0.999985
809	2980764459													0.039899	0.014513	-9.640731	-0.721476	-0.692425	-0.004488	-0.692419	0.721489	-0.003009	0.005321	0.000937	-0.999985
810	2980772792													0.032474	-0.005014	-9.636868	-0.721480	-0.692420	-0.004484	-0.692415	0.721494	-0.003006	0.005317	0.000936	-0.999985
811	2980781125													0.044477	0.031995	-9.628435	-0.721485	-0.692416	-0.004487	-0.692410	0.721498	-0.003006	0.005319	0.000938	-0.999985
812	2980789458													0.044183	-0.001309	-9.637562	-0.721478	-0.692423	-0.004483	-0.692417	0.721491	-0.003003	0.005314	0.000938	-0.999985
813	2980797791													0.055771	0.018783	-9.646932	-0.721471	-0.692430	-0.004491	-0.692424	0.721484	-0.003002	0.005319	0.000944	-0.999985
814	2980806124													0.056944	0.025536	-9.642176	-0.721474	-0.692427	-0.004500	-0.692421	0.721487	-0.002999	0.005323	0.000952	-0.999985
815	2980814457													0.045135	0.011488	-9.652355	-0.721473	-0.692427	-0.004513	-0.692422	0.721487	-0.002999	0.005333	0.000961	-0.999985
816	2980822790													0.063467	0.003669	-9.655587	-0.721478	-0.692423	-0.004499	-0.692417	0.721491	-0.003001	0.005324	0.000950	-0.999985
817	2980831123													0.044684	0.003784	-9.663426	-0.721486	-0.692415	-0.004499	-0.692409	0.721499	-0.002990	0.005316	0.000958	-0.999985
818	2980839456													0.043375	-0.004184	-9.646860	-0.721493	-0.692407	-0.004489	-0.692402	0.721506	-0.003006	0.005320	0.000940	-0.999985
819	2980847789													0.062781	-0.002103	-9.636045	-0.721504	-0.692396	-0.004469	-0.692390	0.721517	-0.003011	0.005310	0.000922	-0.999985
820	2980856122													0.065141	0.001466	-9.636417	-0.721501	-0.692399	-0.004480	-0.692393	0.721514	-0.003006	0.005314	0.000933	-0.999985
821	2980864455													0.068510	0.004192	-9.634622	-0.721507	-0.692392	-0.004476	-0.692387	0.721520	-0.003014	0.005316	0.000925	-0.999985
822	2980872788													0.051829	0.026551	-9.641031	-0.721498	-0.692402	-0.004478	-0.692396	0.721511	-0.003022	0.005323	0.000920	-0.999985
823	2980881121													0.050757	0.013083	-9.644207	-0.721493	-0.692407	-0.004466	-0.692401	0.721506	-0.003028	0.005319	0.000908	-0.999985
824	2980889454													0.058668	0.021058	-9.656781	-0.721493	-0.692407	-0.004465	-0.692401	0.721507	-0.003039	0.005325	0.000899	-0.999985
825	2980897787													0.054025	0.001416	-9.637096	-0.721500	-0.692400	-0.004458	-0.692394	0.721513	-0.003039	0.005321	0.000895	-0.999985
826	2980906120													0.064683	0.022353	-9.651796	-0.721498	-0.692402	-0.004446	-0.692396	0.721511	-0.003047	0.005318	0.000880	-0.999985
827	2980914453													0.059483	-0.003920	-9.667668	-0.721500	-0.692400	-0.004447	-0.692394	0.721514	-0.003048	0.005319	0.000880	-0.999985
828	2980922786													0.043175	0.016659	-9.664421	-0.721497	-0.692403	-0.004462	-0.692397	0.721511	-0.003041	0.005324	0.000895	-0.999985
829	2980931119													0.042216	-0.006502	-9.626539	-0.721498	-0.692402	-0.004459	-0.692396	0.721511	-0.003046	0.005327	0.000890	-0.999985
830	2980939452													0.055442	0.005644	-9.637483	-0.721495	-0.692405	-0.004455	-0.692399	0.721509	-0.003057	0.005331	0.000879	-0.999985
831	2980947785													0.056214	-0.012682	-9.653098	-0.721493	-0.692407	-0.004464	-0.692401	0.721507	-0.003052	0.005334	0.000889	-0.999985
832	2980956118													0.047667	0.016716	-9.639107	-0.721493	-0.692407	-0.004469	-0.692401	0.721506	-0.003056	0.005340	0.000889	-0.999985
833	2980964451													0.051672	0.009757	-9.644036	-0.721492	-0.692408	-0.004471	-0.692402	0.721506	-0.003074	0.005354	0.000877	-0.999985
834	2980972784													0.052223	0.009714	-9.640866	-0.721495	-0.692405	-0.004469	-0.692398	0.721509	-0.003078	0.005356	0.000874	-0.999985
835	2980981117													0.055542	0.020278	-9.636489	-0.721508	-0.692392	-0.004446	-0.692385	0.721521	-0.003082	0.005342	0.000855	-0.999985
