sep=,
DeviceTag:,yao
FirmwareVersion:,1.6.0
AppVersion:,2021.0
StartTime: ,2021-08-30_17:05:05_000 GMT+8
© Xsens Technologies B. V. 2005-2021

PacketCounter,SampleTimeFine,Euler_X,Euler_Y,Euler_Z,Acc_X,Acc_Y,Acc_Z,Gyr_X,Gyr_Y,Gyr_Z
0,677788567,26.65933227539062,70.26589965820312,89.59244537353516,0.00000000000000,0.00000000000000,0.00000000000000,0.00000000000000,0.00000000000000,0.00000000000000
1,677796900,26.67735671997070,70.19101715087891,89.51596069335938,-9.36349201202393,1.86779558658600,2.52142357826233,10.47605705261230,-8.73176574707031,0.09601496905088
2,677805233,26.67110443115234,70.12725830078125,89.45781707763672,-9.23003959655762,1.85130560398102,2.71516013145447,5.49366474151611,-7.20027685165405,0.15386471152306
3,677813566,28.45786285400391,70.07566833496094,91.02130126953125,-9.15261650085449,1.98891198635101,3.31889677047729,2.04492521286011,-6.18122673034668,0.03666677698493
4,677821899,28.40954971313477,70.01468658447266,90.97063446044922,-9.08104038238525,2.19802427291870,3.29902172088623,-0.40683087706566,-6.72768068313599,0.49610930681229
5,677830232,29.74442481994629,69.72129058837891,91.99034118652344,-9.02157402038574,2.31839060783386,3.18092513084412,-1.40578615665436,-5.87403583526611,1.09476530551910
6,677838565,29.72187995910645,69.66001892089844,91.96766662597656,-9.05829524993896,2.29118752479553,2.83082771301270,-0.47447815537453,-6.15773916244507,1.66160833835602
7,677846898,30.92384910583496,69.13919067382812,92.87647247314453,-9.05958366394043,2.21768784523010,2.34517264366150,-0.97749036550522,-4.39353275299072,2.81289100646973
8,677855231,30.96242523193359,69.10814666748047,92.95867156982422,-8.97009086608887,2.18839859962463,2.54903173446655,-4.90863561630249,-0.68958646059036,3.76382017135620
9,677863564,32.16244888305664,68.86931610107422,93.89627075195312,-9.14726924896240,2.01726341247559,2.96388292312622,-5.95349121093750,-1.74412441253662,4.27187824249268
10,677871897,32.15399932861328,68.79528808593750,93.93877410888672,-9.27337360382080,1.85470211505890,2.95608115196228,-6.09095001220703,-5.84033966064453,5.11759567260742
11,677880230,32.97934722900391,68.62749481201172,94.54705810546875,-9.22395896911621,1.75565612316132,2.76087212562561,-7.24378347396851,-6.29152297973633,5.57149410247803
12,677888563,32.96077346801758,68.55248260498047,94.58250427246094,-9.30311012268066,1.74275016784668,2.93518900871277,-6.51362371444702,-6.00835752487183,5.03318500518799
13,677896896,33.38120651245117,68.49185180664062,94.82402038574219,-9.26794719696045,1.89733958244324,3.19776582717896,-7.42313432693481,-4.93683624267578,4.23814439773560
14,677905229,33.35311889648438,68.43169403076172,94.85493469238281,-9.24072360992432,1.99314117431641,2.99584913253784,-7.14509201049805,-4.58095264434814,3.93904733657837
15,677913562,33.53391647338867,68.40364837646484,94.89507293701172,-9.27235412597656,1.88113498687744,2.54310679435730,-7.18041229248047,-2.99555897712708,3.38828897476196
16,677921895,33.48710250854492,68.36449432373047,94.93686676025391,-9.26498603820801,1.81885492801666,2.73199510574341,-10.60471725463867,-2.19651031494141,2.96469426155090
17,677930228,33.61777877807617,68.38200378417969,94.97492980957031,-9.26858806610107,2.00152206420898,2.82024145126343,-11.00596332550049,-0.68045496940613,3.33556270599365
18,677938561,33.60380554199219,68.35176849365234,95.05273437500000,-9.33039665222168,1.98185658454895,2.85929965972900,-10.68006134033203,-0.41820365190506,3.70421576499939
19,677946894,33.72550582885742,68.39353942871094,95.10331726074219,-9.25755596160889,1.85934340953827,2.77637434005737,-9.84683036804199,0.81585192680359,3.46031689643860
20,677955227,33.70392990112305,68.36127471923828,95.17708587646484,-9.46232891082764,1.72944521903992,3.14946818351746,-11.14490890502930,-0.70836174488068,3.69087076187134
21,677963560,33.72969818115234,68.37237548828125,95.16504669189453,-9.12804698944092,1.67678141593933,3.00560045242310,-13.82272624969482,-3.53302383422852,4.31439876556396
22,677971893,33.63864135742188,68.31067657470703,95.20983123779297,-9.22713661193848,1.63310885429382,2.93430185317993,-16.24890327453613,-4.36382102966309,4.58624219894409
23,677980226,33.52562713623047,68.29629516601562,95.09487915039062,-9.07543563842773,1.75230169296265,3.07185506820679,-15.81015872955322,-6.53660011291504,3.97055244445801
24,677988559,33.40079498291016,68.21877288818359,95.07810974121094,-9.13606262207031,1.77772247791290,3.13865065574646,-13.43889713287354,-7.47259664535522,3.33793282508850
25,677996892,33.24731063842773,68.20213317871094,94.91374206542969,-9.17631340026855,1.68699085712433,2.99776840209961,-12.76877689361572,-6.94612169265747,2.94224405288696
26,678005225,33.15246963500977,68.14280700683594,94.91557312011719,-9.20921802520752,1.72616851329803,2.88954567909241,-11.91264438629150,-5.21308660507202,2.79480767250061
27,678013558,33.01440048217773,68.12932586669922,94.76480865478516,-9.30735397338867,1.79301357269287,3.00245594978333,-11.76700019836426,-5.12884140014648,3.52847647666931
28,678021891,32.93872451782227,68.05796051025391,94.78127288818359,-9.26220893859863,1.68181073665619,3.03408074378967,-11.24342060089111,-6.08691596984863,4.11260890960693
29,678030224,32.78980255126953,68.02842712402344,94.63032531738281,-9.14317893981934,1.63048589229584,3.03428864479065,-12.55800819396973,-6.88619613647461,4.56468820571899
30,678038557,32.73473739624023,67.96838378906250,94.68480682373047,-9.01058006286621,1.62230122089386,2.94531035423279,-13.00250434875488,-4.03562545776367,4.79123258590698
31,678046890,32.64169311523438,67.97356414794922,94.59033966064453,-9.06815814971924,1.57152795791626,3.17052221298218,-11.29767131805420,-1.74678850173950,4.63990354537964
32,678055223,32.68066406250000,67.94443511962891,94.69478607177734,-9.06455230712891,1.58244395256042,3.12508320808411,-7.27421236038208,0.29383370280266,4.68011760711670
33,678063556,32.64493560791016,67.96504211425781,94.62426757812500,-9.17289638519287,1.55603301525116,3.05259346961975,-6.05933046340942,0.77827590703964,4.56854343414307
34,678071889,32.65966415405273,67.93231201171875,94.71933746337891,-9.17208862304688,1.59852743148804,2.98783421516418,-9.13759708404541,-0.29832899570465,4.55796384811401
35,678080222,32.51913833618164,67.92417907714844,94.59840393066406,-9.19356060028076,1.75755500793457,3.08030843734741,-12.51658916473389,-3.01363015174866,4.71017599105835
36,678088555,32.46924209594727,67.85275268554688,94.65785980224609,-9.16633510589600,1.76295292377472,3.03430342674255,-12.93151569366455,-5.08815383911133,5.70157623291016
37,678096888,32.31534194946289,67.82775115966797,94.54463958740234,-9.03736877441406,1.68905770778656,3.24229216575623,-15.36594486236572,-4.40120553970337,6.05950975418091
38,678105221,32.26656723022461,67.78458404541016,94.64930725097656,-9.07687282562256,1.79233908653259,3.36822533607483,-17.81679534912109,-1.14284348487854,5.60977554321289
39,678113554,32.09792709350586,67.77457427978516,94.53837585449219,-9.28612041473389,1.69981932640076,3.56848740577698,-15.73489284515381,-2.79058194160461,4.25337266921997
40,678121887,31.99257850646973,67.70105743408203,94.52972412109375,-9.22307872772217,1.55032551288605,3.46789956092834,-12.01488399505615,-6.98952436447144,3.18195462226868
41,678130220,31.80972862243652,67.67768859863281,94.37316894531250,-9.09586238861084,1.55592787265778,3.21092462539673,-11.10140228271484,-4.45227909088135,2.59246802330017
42,678138553,31.76031112670898,67.64857482910156,94.39960479736328,-9.16830444335938,1.72926354408264,3.20820999145508,-9.20137691497803,-1.63874793052673,1.70295000076294
43,678146886,31.63643646240234,67.65666198730469,94.27050781250000,-9.16330242156982,1.88582336902618,3.29081273078918,-6.48032379150391,-0.20563104748726,1.64165461063385
44,678155219,31.63752174377441,67.64101409912109,94.32791900634766,-9.12110996246338,1.89838588237762,3.35338497161865,-6.58188533782959,0.47354319691658,2.05396699905396
45,678163552,31.52881622314453,67.63629150390625,94.21150970458984,-9.18800735473633,1.92504501342773,3.63344359397888,-6.92456483840942,-0.92901545763016,2.71651792526245
46,678171885,31.49721336364746,67.59729003906250,94.25955200195312,-9.20071887969971,1.87885618209839,3.39666724205017,-9.46284675598145,-2.14350175857544,3.15768456459045
47,678180218,31.36511611938477,67.60076904296875,94.17076110839844,-9.17556953430176,1.87955772876740,3.17596101760864,-12.20339202880859,1.01087880134583,2.41072249412537
48,678188551,31.34583854675293,67.61003875732422,94.25286865234375,-9.24992370605469,1.83971869945526,3.24063992500305,-11.76123714447021,3.60365390777588,1.46243202686310
49,678196884,31.24513435363770,67.64205169677734,94.19537353515625,-9.36944007873535,1.69381105899811,3.09493422508240,-10.72883033752441,4.45286846160889,0.95626908540726
50,678205217,31.22555923461914,67.65843963623047,94.27274322509766,-9.37577915191650,1.50783491134644,3.15118789672852,-11.27784633636475,4.20825290679932,0.84325909614563
51,678213550,31.11494064331055,67.68620300292969,94.19474029541016,-9.30102920532227,1.52471089363098,3.11811733245850,-11.55299377441406,3.65378117561340,0.89638292789459
52,678221883,31.04856109619141,67.67237854003906,94.23246765136719,-9.37130355834961,1.49481868743896,3.39841413497925,-12.49539279937744,0.16407200694084,1.17140316963196
53,678230216,30.86124992370605,67.65985107421875,94.11610412597656,-9.23539257049561,1.49745619297028,3.38247060775757,-14.27742671966553,-2.11448097229004,1.39368331432343
54,678238549,30.79707717895508,67.64176177978516,94.15541076660156,-9.20866298675537,1.47596704959869,3.72441697120667,-12.40400314331055,-0.24464161694050,1.49457812309265
55,678246882,30.66382408142090,67.64896392822266,94.03371429443359,-9.28359127044678,1.41276073455811,3.43317723274231,-6.80211591720581,-0.09233931452036,0.03935627266765
56,678255215,30.64270210266113,67.64916229248047,94.03350067138672,-9.31537628173828,1.33774828910828,3.18736863136292,-2.85473251342773,0.71485489606857,-1.17415654659271
57,678263548,30.48426437377930,67.66053009033203,93.84864044189453,-9.36595249176025,1.24527716636658,3.20704364776611,-2.88949036598206,-0.66146200895309,-2.43709206581116
58,678271881,30.37074661254883,67.64327239990234,93.76786804199219,-9.26217174530029,1.27481794357300,3.07674813270569,-5.00094842910767,-2.95104122161865,-3.28307890892029
59,678280214,30.15608406066895,67.64702606201172,93.53810882568359,-9.27815723419189,1.38693821430206,3.01107335090637,-5.00248527526855,-2.57077264785767,-3.25139379501343
60,678288547,30.08115768432617,67.64474487304688,93.49114227294922,-9.22701358795166,1.49169325828552,2.81131863594055,-4.12619733810425,-0.61212903261185,-2.86597704887390
61,678296880,29.93301010131836,67.67797851562500,93.33200073242188,-9.17860031127930,1.60472869873047,3.01992082595825,-3.85432791709900,1.60336160659790,-2.39229297637939
62,678305213,29.91408729553223,67.69711303710938,93.34047698974609,-9.10300159454346,1.76648938655853,3.22392630577087,-3.55674171447754,2.88415002822876,-1.95930981636047
63,678313546,29.82589340209961,67.74908447265625,93.22480773925781,-8.98090744018555,1.89367949962616,3.16019201278687,-1.60432195663452,4.15051794052124,-1.90557098388672
64,678321879,29.88835144042969,67.80647277832031,93.28443908691406,-8.97797489166260,1.91854071617126,2.93786907196045,0.52459233999252,8.01998329162598,-2.22651720046997
65,678330212,29.85932731628418,67.88928222656250,93.22811126708984,-9.11558532714844,1.83783733844757,2.94638442993164,-0.94147682189941,8.66602516174316,-1.99176275730133
66,678338545,29.90098381042480,67.93668365478516,93.29560089111328,-9.09596157073975,1.84841966629028,3.02003860473633,-2.85327267646790,7.14915180206299,-1.33624374866486
67,678346878,29.86592102050781,67.99674224853516,93.27288818359375,-9.03663635253906,1.99556005001068,3.10988855361938,-4.40675067901611,6.59421920776367,-0.21321290731430
68,678355211,29.90409851074219,68.03681945800781,93.36994934082031,-9.08101177215576,2.08074927330017,3.19675230979919,-6.56948852539062,7.04433774948120,0.24257963895798
69,678363544,29.85080909729004,68.07723999023438,93.34348297119141,-9.17202377319336,2.12846946716309,3.27958559989929,-5.96819305419922,4.32390022277832,0.21865589916706
70,678371877,29.84901046752930,68.08054351806641,93.38378906250000,-9.09902095794678,1.97750055789948,3.15923810005188,-5.05069208145142,1.94385135173798,0.22956760227680
71,678380210,29.75838279724121,68.09653472900391,93.30876922607422,-9.06949710845947,1.88539683818817,2.75409173965454,-5.45606279373169,0.85365849733353,-0.70475006103516
72,678388543,29.72096061706543,68.11461639404297,93.33629608154297,-8.98824501037598,1.91202247142792,2.81642484664917,-7.90521812438965,3.19800114631653,-1.14449512958527
73,678396876,29.64627647399902,68.16639709472656,93.30836486816406,-9.02744579315186,1.98490071296692,3.19937896728516,-8.92552471160889,5.48464870452881,-1.36527729034424
74,678405209,29.64875221252441,68.20497131347656,93.36267852783203,-9.11996459960938,2.08003377914429,3.25421237945557,-6.10389852523804,5.92458534240723,-1.32018339633942
75,678413542,29.64010429382324,68.27030944824219,93.35800170898438,-9.13438034057617,2.07502102851868,2.90922498703003,-3.28684401512146,7.26753902435303,-1.77696192264557
76,678421875,29.67970657348633,68.33514404296875,93.42784881591797,-9.06484889984131,1.98077690601349,2.87782883644104,-3.38456249237061,8.99706459045410,-2.29088592529297
77,678430208,29.67436599731445,68.41111755371094,93.43259429931641,-9.05339241027832,1.93857371807098,3.01377439498901,-3.79772019386292,8.51933288574219,-2.57425618171692
78,678438541,29.68767738342285,68.45476531982422,93.48162078857422,-9.10335159301758,1.91780054569244,3.14171385765076,-4.22232723236084,6.32360458374023,-1.84842598438263
79,678446874,29.66616821289062,68.48539733886719,93.48451232910156,-9.11868190765381,1.92411172389984,3.31358647346497,-6.08744096755981,3.74746561050415,-0.09578444063663
80,678455207,29.68133926391602,68.50569152832031,93.56143188476562,-9.06150627136230,1.91559433937073,3.35789418220520,-7.11825990676880,4.49306964874268,0.60042333602905
81,678463540,29.68793296813965,68.54410552978516,93.60203552246094,-9.12725257873535,1.87969100475311,2.99402260780334,-6.86393690109253,5.50529384613037,0.59962922334671
82,678471873,29.69747924804688,68.57711791992188,93.67715454101562,-9.23089885711670,1.77970933914185,2.81207561492920,-7.59683704376221,5.77257823944092,-0.22979810833931
83,678480206,29.63981056213379,68.60561370849609,93.66954040527344,-9.29050922393799,1.75810742378235,2.86503362655640,-8.88330078125000,3.43982577323914,-0.95753711462021
84,678488539,29.57288932800293,68.61259460449219,93.67278289794922,-9.32878398895264,1.63675808906555,2.83275651931763,-8.74613475799561,1.50075089931488,-1.42143642902374
85,678496872,29.47589302062988,68.61813354492188,93.61763000488281,-9.26788616180420,1.67554306983948,2.79584741592407,-8.48092365264893,-0.12840415537357,-1.43519127368927
86,678505205,29.39918327331543,68.60939788818359,93.59754943847656,-9.22836017608643,1.80890190601349,2.54696106910706,-7.31962680816650,-0.64371138811111,-1.37645792961121
87,678513538,29.32874298095703,68.60516357421875,93.55114746093750,-9.19488239288330,1.88966512680054,2.49468660354614,-5.98825073242188,-1.20755755901337,-0.61653470993042
88,678521871,29.28951072692871,68.58926391601562,93.56435394287109,-9.13380146026611,1.89619815349579,2.60193228721619,-6.53782796859741,-0.67882847785950,0.31102082133293
89,678530204,29.26029777526855,68.58271026611328,93.57604980468750,-9.21322154998779,1.83667910099030,2.81677412986755,-7.23412561416626,-0.62532031536102,1.47375333309174
90,678538537,29.24914169311523,68.55220794677734,93.63105010986328,-9.15607929229736,1.86917674541473,3.04486942291260,-7.83734083175659,-1.31278085708618,2.76512050628662
91,678546870,29.24916267395020,68.53307342529297,93.67469024658203,-9.04516029357910,1.83223628997803,3.18121957778931,-8.93388652801514,-1.14669811725616,3.82475614547729
92,678555203,29.24135589599609,68.49264526367188,93.75064849853516,-9.13261032104492,1.79900240898132,3.01934456825256,-9.77427864074707,-1.90189564228058,4.15888118743896
93,678563536,29.21725082397461,68.46170043945312,93.79733276367188,-9.21466922760010,1.83739340305328,2.98890185356140,-11.34142017364502,-2.38376331329346,4.23097229003906
94,678571869,29.22182655334473,68.42807769775391,93.88906860351562,-9.24862098693848,1.88378238677979,2.93620181083679,-10.04687690734863,-0.84611511230469,4.37500143051147
95,678580202,29.25151062011719,68.41333007812500,93.97933959960938,-9.39604091644287,1.90338551998138,2.72137713432312,-9.54993534088135,0.21524924039841,4.80306625366211
96,678588535,29.27121925354004,68.38468933105469,94.09462738037109,-9.37690925598145,1.86846458911896,2.65831422805786,-10.85659503936768,0.18999360501766,5.00001430511475
97,678596868,29.29130744934082,68.37028503417969,94.20345306396484,-9.26901721954346,1.85187506675720,2.60895013809204,-13.66541481018066,0.68123632669449,5.69606971740723
98,678605201,29.31283569335938,68.34597778320312,94.35688018798828,-9.17760276794434,1.83075702190399,2.65773367881775,-14.89068508148193,1.47872281074524,6.22522115707397
99,678613534,29.37082099914551,68.33888244628906,94.51544952392578,-9.18842601776123,1.82931256294250,2.67095804214478,-14.34284782409668,2.23078250885010,6.98967790603638
100,678621867,29.44732666015625,68.33317565917969,94.72736358642578,-9.15499210357666,1.72550511360168,2.81912732124329,-14.81526470184326,4.71138095855713,7.39319229125977
101,678630200,29.53231430053711,68.34153747558594,94.92977905273438,-9.21874618530273,1.65809118747711,3.24090695381165,-15.87565803527832,4.61454629898071,7.63297986984253
102,678638533,29.58839416503906,68.31709289550781,95.11599731445312,-9.14538574218750,1.63235986232758,3.47412061691284,-14.39965915679932,2.21710443496704,7.50203895568848
103,678646866,29.65940093994141,68.31196594238281,95.27580261230469,-9.11702728271484,1.65748274326324,3.19510793685913,-12.73411750793457,2.31779408454895,6.79416322708130
104,678655199,29.71440315246582,68.30665588378906,95.45196533203125,-9.09284877777100,1.71063244342804,3.02854037284851,-13.40526485443115,4.00951194763184,5.98554849624634
105,678663532,29.76226997375488,68.33110809326172,95.60070037841797,-9.12666511535645,1.75050842761993,2.98875641822815,-15.26014328002930,5.57200622558594,4.98920536041260
106,678671865,29.77540016174316,68.34492492675781,95.75268554687500,-9.15918827056885,1.72635543346405,2.90427899360657,-15.74072074890137,5.47544193267822,3.90208673477173
107,678680198,29.79418754577637,68.38083648681641,95.88189697265625,-9.17065620422363,1.68886542320251,2.81052279472351,-15.71966361999512,6.19284486770630,3.24794960021973
108,678688531,29.80222892761230,68.41139221191406,96.03257751464844,-9.23048782348633,1.67193126678467,2.88777828216553,-16.21555900573730,7.18199110031128,2.83604741096497
109,678696864,29.80866432189941,68.45747375488281,96.15865325927734,-9.24319553375244,1.64118123054504,3.08648800849915,-17.20598411560059,7.18047904968262,2.63177371025085
110,678705197,29.80437088012695,68.48754119873047,96.32128906250000,-9.24722862243652,1.72398483753204,3.25389862060547,-19.04233360290527,7.38192272186279,3.30213689804077
111,678713530,29.80842208862305,68.52929687500000,96.47061920166016,-9.28561878204346,1.84190762042999,3.35091209411621,-20.32270431518555,7.28178501129150,3.87050485610962
112,678721863,29.81595802307129,68.54986572265625,96.64707183837891,-9.25849819183350,1.83456885814667,3.54685425758362,-19.17397689819336,6.68333244323730,4.38079118728638
113,678730196,29.84668731689453,68.57775115966797,96.79045104980469,-9.23113346099854,1.67365598678589,3.31828141212463,-16.08886909484863,5.78363180160522,4.30814886093140
114,678738529,29.90452575683594,68.58736419677734,96.94843292236328,-9.31125259399414,1.55799818038940,3.25093245506287,-11.08333206176758,5.13605117797852,4.31419324874878
115,678746862,29.96471023559570,68.59837341308594,97.05462646484375,-9.34241580963135,1.48383474349976,3.19733405113220,-8.66463088989258,3.48388242721558,3.98105478286743
116,678755195,30.01780700683594,68.60340118408203,97.17593383789062,-9.35037422180176,1.49612283706665,3.25621056556702,-7.55709648132324,3.86827468872070,3.18294024467468
117,678763528,30.06763458251953,68.62088012695312,97.24211120605469,-9.53119182586670,1.54410314559937,3.25294256210327,-5.45029926300049,3.38631701469421,2.19353890419006
118,678771861,30.10153198242188,68.62108612060547,97.30145263671875,-9.50986957550049,1.59593224525452,3.06654238700867,-2.94089818000793,2.00962877273560,1.12214672565460
119,678780194,30.14243888854980,68.65296173095703,97.32600402832031,-9.34671688079834,1.59761500358582,2.87602043151855,-1.66497659683228,4.02108955383301,-0.19740891456604
120,678788527,30.18137359619141,68.69400024414062,97.38908386230469,-9.30451202392578,1.54854750633240,2.84693026542664,-2.75942111015320,6.32980251312256,-1.20304942131042
121,678796860,30.19083595275879,68.75004577636719,97.40937805175781,-9.26270198822021,1.53960454463959,2.94941544532776,-4.73986339569092,6.35956716537476,-1.83292925357819
122,678805193,30.18684768676758,68.79392242431641,97.45851898193359,-9.29269504547119,1.61010754108429,2.93002223968506,-6.36019420623779,6.31159067153931,-1.90997684001923
123,678813526,30.17207336425781,68.84333801269531,97.47808074951172,-9.41490650177002,1.75543379783630,3.06272840499878,-7.61265420913696,5.62415647506714,-1.37230837345123
124,678821859,30.13994216918945,68.86397552490234,97.51351928710938,-9.39114189147949,1.90271079540253,3.04369163513184,-8.20718574523926,3.59837770462036,-1.02613186836243
125,678830192,30.11340713500977,68.89895629882812,97.52227020263672,-9.30150032043457,1.85972583293915,2.75745081901550,-7.81423759460449,3.89516973495483,-0.89237439632416
126,678838525,30.08595275878906,68.92385864257812,97.56189727783203,-9.30745315551758,1.71505832672119,2.76708483695984,-8.11845874786377,4.12851619720459,-1.12361979484558
127,678846858,30.04086303710938,68.95532226562500,97.55516052246094,-9.24721527099609,1.63088655471802,2.85619425773621,-8.39872837066650,3.17069673538208,-1.30550646781921
128,678855191,29.99869918823242,68.96990203857422,97.58139801025391,-9.20091152191162,1.53440964221954,2.91281390190125,-8.38784217834473,2.76355838775635,-0.99962115287781
129,678863524,29.95586776733398,68.99020385742188,97.57437133789062,-9.12353801727295,1.45459377765656,3.01201033592224,-8.03592777252197,1.94380009174347,-0.66048866510391
130,678871857,29.93670845031738,68.99734497070312,97.60826873779297,-9.05085849761963,1.55603098869324,3.13272333145142,-6.48736858367920,2.15457987785339,-0.26743823289871
131,678880190,29.95243835449219,69.03294372558594,97.62731933593750,-8.95545291900635,1.70165193080902,3.11104011535645,-3.96426415443420,4.12841320037842,-0.52375990152359
132,678888523,29.99629974365234,69.07266235351562,97.68978881835938,-9.00789165496826,1.72563207149506,2.91280794143677,-2.13069462776184,6.15078496932983,-1.16127264499664
133,678896856,30.04153251647949,69.13716125488281,97.72667694091797,-9.05774688720703,1.68568789958954,2.94249033927917,-2.29752016067505,7.59535217285156,-1.64945447444916
134,678905189,30.08787155151367,69.18816375732422,97.79519653320312,-9.08175086975098,1.69273459911346,3.11476731300354,-2.52069711685181,7.44363927841187,-1.63395786285400
135,678913522,30.13677597045898,69.24156188964844,97.83049774169922,-9.06416702270508,1.77110469341278,3.30511641502380,-1.63500785827637,6.41832494735718,-1.11393725872040
136,678921855,30.18292999267578,69.25851440429688,97.86788177490234,-9.04600429534912,1.87314581871033,3.30913805961609,0.94314175844193,3.23681974411011,-0.74392700195312
137,678930188,30.23443412780762,69.27756500244141,97.86257171630859,-9.07268905639648,2.00388741493225,3.13591432571411,3.28010773658752,2.11125326156616,-0.59864306449890
138,678938521,30.27691459655762,69.27237701416016,97.86248016357422,-9.19733142852783,2.06622624397278,3.09863424301147,4.70821666717529,0.14194127917290,-0.78779149055481
139,678946854,30.29724121093750,69.26937866210938,97.82550811767578,-9.21095275878906,1.99023044109344,2.96599411964417,3.49105405807495,-0.79752492904663,-0.66817295551300
140,678955187,30.30988311767578,69.26001739501953,97.82627105712891,-9.25693798065186,1.91503059864044,2.80067420005798,1.02542746067047,-0.27499440312386,-0.49658313393593
141,678963520,30.31834220886230,69.26763916015625,97.82334899902344,-9.37892436981201,1.85392916202545,2.62340235710144,-2.15320944786072,1.15224361419678,-0.06710929423571
142,678971853,30.33624458312988,69.27876281738281,97.88057708740234,-9.35680007934570,1.76334953308105,2.58534097671509,-4.67779922485352,3.06196451187134,0.33035957813263
143,678980186,30.35604476928711,69.30838775634766,97.93307495117188,-9.35206508636475,1.76661241054535,2.63914680480957,-6.95234346389771,4.51572561264038,0.54047322273254
144,678988519,30.36909484863281,69.33339691162109,98.02715301513672,-9.33386707305908,1.81184720993042,2.68048691749573,-9.40257740020752,5.28210449218750,0.83219385147095
145,678996852,30.36453437805176,69.36889648437500,98.09788513183594,-9.32200431823730,1.78437995910645,2.72297024726868,-11.93267536163330,5.39990472793579,0.81854140758514
146,679005185,30.34473419189453,69.39952087402344,98.19254302978516,-9.22370719909668,1.69016790390015,2.71770858764648,-13.41568660736084,5.87128257751465,0.50338375568390
147,679013518,30.33341979980469,69.44809722900391,98.26525115966797,-9.16218471527100,1.74508881568909,2.90489697456360,-12.94241333007812,6.71066141128540,0.03963803127408
148,679021851,30.34812927246094,69.49329376220703,98.36765289306641,-9.10285663604736,1.73520481586456,3.02636885643005,-10.15727615356445,7.53523540496826,-0.10911665856838
149,679030184,30.39599418640137,69.55157470703125,98.45077514648438,-9.10819435119629,1.64729785919189,3.06687092781067,-6.97516727447510,7.90904903411865,-0.22112770378590
150,679038517,30.43887138366699,69.59565734863281,98.54172515869141,-9.19014739990234,1.69727480411530,3.18194222450256,-5.49512481689453,7.16523742675781,-0.48031815886497
151,679046850,30.48561096191406,69.64389801025391,98.60536956787109,-9.20457267761230,1.74883389472961,3.19637489318848,-4.91469240188599,6.52161455154419,-0.35169622302055
152,679055183,30.52978897094727,69.68273162841797,98.69467926025391,-9.30159091949463,1.75912976264954,3.08817815780640,-5.16450834274292,6.58068084716797,-0.24058170616627
153,679063516,30.58101844787598,69.73011779785156,98.76718902587891,-9.36372089385986,1.75996136665344,2.90125632286072,-5.34766340255737,6.72956418991089,-0.03032725676894
154,679071849,30.63942337036133,69.76975250244141,98.87907409667969,-9.34732055664062,1.73541986942291,2.80583882331848,-6.00940799713135,7.13347625732422,0.49861961603165
155,679080182,30.70779037475586,69.81703186035156,98.98426818847656,-9.30185794830322,1.63912093639374,2.73502731323242,-7.01509809494019,7.44496965408325,1.10939097404480
156,679088515,30.78448677062988,69.85797882080078,99.13829040527344,-9.27776145935059,1.53721809387207,2.74745392799377,-8.57147216796875,8.15258979797363,1.88424754142761
157,679096848,30.87121582031250,69.90805053710938,99.29192352294922,-9.29657077789307,1.48225510120392,2.82844352722168,-10.29920387268066,8.73549365997314,2.61502194404602
158,679105181,30.96117019653320,69.94971466064453,99.48137664794922,-9.30265426635742,1.47650468349457,2.89240980148315,-10.98640727996826,8.96896553039551,3.04833769798279
159,679113514,31.06727218627930,69.99923706054688,99.65366363525391,-9.23326969146729,1.45576953887939,2.99411892890930,-10.03179359436035,9.04891109466553,3.29126381874084
160,679121847,31.18435668945312,70.04328918457031,99.84849548339844,-9.20535945892334,1.45367372035980,3.08121418952942,-8.35039615631104,9.32482528686523,3.02833294868469
161,679130180,31.31842613220215,70.09770965576172,100.01276397705078,-9.16830158233643,1.45042288303375,3.10815334320068,-5.66512584686279,9.40663623809814,2.67021989822388
162,679138513,31.47865104675293,70.14356231689453,100.19547271728516,-9.18011379241943,1.47786033153534,3.09478497505188,-1.82281148433685,9.25136184692383,2.42340111732483
163,679146846,31.66101837158203,70.19423675537109,100.34095001220703,-9.13679790496826,1.49603724479675,3.05202555656433,2.06326532363892,8.76548671722412,2.28685188293457
164,679155179,31.86120796203613,70.23294067382812,100.50175476074219,-9.06418895721436,1.51259207725525,3.02425098419189,5.42748928070068,8.05520343780518,2.03875231742859
165,679163512,32.05085372924805,70.26898193359375,100.60803222656250,-9.11686325073242,1.56001484394073,2.99569654464722,7.40339756011963,6.53200197219849,1.83537542819977
166,679171845,32.22613143920898,70.28417968750000,100.72406005859375,-9.17478656768799,1.57342350482941,2.98710393905640,7.48828458786011,4.71474838256836,1.93929219245911
167,679180178,32.36208724975586,70.29434204101562,100.78979492187500,-9.22069931030273,1.61470282077789,2.99270653724670,5.92051315307617,3.06127262115479,1.97986519336700
168,679188511,32.47469711303711,70.28997039794922,100.86942291259766,-9.32399272918701,1.64714241027832,2.95823431015015,4.07806825637817,1.95559561252594,1.93082678318024
169,679196844,32.55683135986328,70.28717803955078,100.90647888183594,-9.39801502227783,1.67119598388672,2.91838717460632,2.61755681037903,1.22967529296875,1.88450300693512
170,679205177,32.63706207275391,70.27799987792969,100.97012329101562,-9.45319938659668,1.70736241340637,2.85333895683289,1.99472129344940,1.13008725643158,1.69641792774200
171,679213510,32.71317672729492,70.27994537353516,101.01001739501953,-9.41417121887207,1.79286110401154,2.80495953559875,1.91816043853760,1.76327133178711,1.58461189270020
172,679221843,32.79196929931641,70.27968597412109,101.08008575439453,-9.38064384460449,1.86649036407471,2.80323147773743,1.09453475475311,2.17691564559937,1.33904826641083
173,679230176,32.85575485229492,70.28536987304688,101.12273406982422,-9.34928417205811,1.91830456256866,2.82135438919067,0.39930027723312,2.16770696640015,1.34377396106720
174,679238509,32.92155456542969,70.28505706787109,101.19207763671875,-9.30797863006592,1.90923285484314,2.83194208145142,-0.38592967391014,2.16103458404541,1.31374132633209
175,679246842,32.97360610961914,70.28923797607422,101.23330688476562,-9.29819583892822,1.89183950424194,2.83428168296814,-0.87157553434372,1.99953699111938,1.34985744953156
176,679255175,33.02786254882812,70.28480529785156,101.29662322998047,-9.31926822662354,1.84261250495911,2.85763597488403,-1.08870756626129,1.61967778205872,1.37636816501617
177,679263508,33.07140350341797,70.28192901611328,101.32766723632812,-9.39649200439453,1.78453886508942,2.83737206459045,-0.97049784660339,1.13528680801392,1.48433208465576
178,679271841,33.11605834960938,70.26921081542969,101.37722015380859,-9.41794681549072,1.73461115360260,2.84297394752502,-0.69230157136917,0.48547944426537,1.45295464992523
179,679280174,33.15118408203125,70.25725555419922,101.39362335205078,-9.42887783050537,1.72527289390564,2.81579542160034,0.09035420417786,-0.15698964893818,1.44419455528259
180,679288507,33.19506835937500,70.23760223388672,101.42876434326172,-9.43229103088379,1.68832206726074,2.80558991432190,0.84082561731339,-0.52634686231613,1.42667448520660
181,679296840,33.23574447631836,70.22312164306641,101.43376922607422,-9.38392925262451,1.66038143634796,2.75726199150085,1.76507699489594,-0.59093320369720,1.32177138328552
182,679305173,33.27185058593750,70.20470428466797,101.46042633056641,-9.28007030487061,1.59640014171600,2.77699828147888,0.86623507738113,-0.58590006828308,1.06023728847504
183,679313506,33.28536605834961,70.18999481201172,101.45524597167969,-9.19151782989502,1.61549103260040,2.80646800994873,-0.05238111317158,-0.89665198326111,0.93165379762650
184,679321839,33.29711151123047,70.16895294189453,101.46785736083984,-9.16718387603760,1.72141063213348,2.77192687988281,-0.47104576230049,-1.15873670578003,0.75839906930923
185,679330172,33.29623413085938,70.15329742431641,101.45603942871094,-9.24627971649170,1.82297718524933,2.70049619674683,-1.14357316493988,-1.09687840938568,0.84128677845001
186,679338505,33.30693054199219,70.13663482666016,101.47655487060547,-9.29104423522949,1.86907982826233,2.64679431915283,-1.49407851696014,-0.54335480928421,0.74285125732422
187,679346838,33.31816864013672,70.12786102294922,101.48274993896484,-9.27085971832275,1.86137700080872,2.58211350440979,-1.56643843650818,-0.03388763219118,0.94756013154984
188,679355171,33.35036468505859,70.12190246582031,101.53289031982422,-9.33406448364258,1.85011029243469,2.58464002609253,-2.25599956512451,1.19655621051788,1.04904389381409
189,679363504,33.37416076660156,70.12376403808594,101.56517791748047,-9.34411430358887,1.83643388748169,2.61545395851135,-3.03974390029907,1.58945310115814,1.11541032791138
190,679371837,33.40935897827148,70.12424468994141,101.62530517578125,-9.32503890991211,1.88571882247925,2.73687720298767,-3.02542519569397,2.06359791755676,0.96971642971039
191,679380170,33.45264434814453,70.13453674316406,101.67658996582031,-9.28592205047607,1.94106853008270,2.80679941177368,-2.82435321807861,2.81926894187927,1.17081379890442
192,679388503,33.49002456665039,70.13608551025391,101.74763488769531,-9.28940486907959,1.97764885425568,2.85706400871277,-3.99925327301025,2.42130112648010,1.26689302921295
193,679396836,33.50038528442383,70.13108062744141,101.78431701660156,-9.31879806518555,1.99991893768311,2.88066220283508,-4.89080715179443,0.91000968217850,1.58084630966187
194,679405169,33.51801300048828,70.11112213134766,101.83263397216797,-9.30979824066162,1.95804953575134,2.82468843460083,-3.80573749542236,-0.23987731337547,1.92023539543152
195,679413502,33.52660369873047,70.08597564697266,101.84144592285156,-9.29772281646729,1.87734019756317,2.82361388206482,-2.69886970520020,-1.55585980415344,2.13962101936340
196,679421835,33.55823135375977,70.05587005615234,101.87834167480469,-9.33212757110596,1.83143830299377,2.77964401245117,-0.83530586957932,-1.51001048088074,2.20911264419556
197,679430168,33.59276962280273,70.03028869628906,101.89887237548828,-9.35098457336426,1.82486081123352,2.74543428421021,-0.32690167427063,-1.43072140216827,2.36760067939758
198,679438501,33.61708450317383,69.99429321289062,101.92696380615234,-9.32678890228271,1.79807519912720,2.69377660751343,-0.72184765338898,-2.29266619682312,2.30628013610840
199,679446834,33.60853195190430,69.95127868652344,101.90615081787109,-9.28970909118652,1.84023892879486,2.70996832847595,-0.89669042825699,-4.10054445266724,2.13315343856812
200,679455167,33.59657287597656,69.90390777587891,101.90963745117188,-9.26479721069336,1.74620878696442,2.69551801681519,-2.30214333534241,-3.98771381378174,2.22592806816101
201,679463500,33.60503768920898,69.88103485107422,101.91418457031250,-9.25240039825439,1.62212038040161,2.51782512664795,-2.29867315292358,-1.40576064586639,1.83601570129395
202,679471833,33.64627075195312,69.87394714355469,101.97511291503906,-9.31904125213623,1.53318154811859,2.44603824615479,-2.39359903335571,1.35405814647675,1.52398288249969
203,679480166,33.65792083740234,69.86482238769531,101.99559020996094,-9.43289184570312,1.53874266147614,2.59355282783508,-3.02360653877258,0.15746350586414,1.29460728168488
204,679488499,33.65982055664062,69.84192657470703,102.01899719238281,-9.34568214416504,1.61452400684357,2.59487581253052,-2.88836359977722,-1.08076715469360,1.28945899009705
205,679496832,33.66038513183594,69.83122253417969,102.02582550048828,-9.31636428833008,1.67917370796204,2.58523464202881,-2.78777623176575,-0.37740010023117,0.99125790596008
206,679505165,33.68161773681641,69.82662200927734,102.07022857666016,-9.23633956909180,1.67737317085266,2.72842311859131,-2.93768382072449,1.22638392448425,0.80054730176926
207,679513498,33.70754241943359,69.83232879638672,102.09826660156250,-9.25771331787109,1.62780404090881,2.85617828369141,-2.33025503158569,1.74610948562622,0.73088937997818
208,679521831,33.74921417236328,69.83863067626953,102.15238189697266,-9.26456546783447,1.61378777027130,2.83978557586670,-1.57811868190765,2.54061174392700,0.40553736686707
209,679530164,33.78463363647461,69.86228179931641,102.18919372558594,-9.26767349243164,1.65932643413544,2.75732350349426,-1.86489546298981,3.69145941734314,-0.23780253529549
210,679538497,33.79677200317383,69.87702941894531,102.22251892089844,-9.30351734161377,1.78513336181641,2.82193589210510,-2.78395986557007,2.90297651290894,-0.87370151281357
211,679546830,33.79377365112305,69.89396667480469,102.21146392822266,-9.24254035949707,1.89463150501251,2.71062827110291,-1.39812755584717,1.99049520492554,-1.29464590549469
212,679555163,33.81135940551758,69.90203857421875,102.20922088623047,-9.22621059417725,1.94095158576965,2.64299511909485,1.87599921226501,1.42150044441223,-1.64771234989166
213,679563496,33.83162307739258,69.91775512695312,102.17957305908203,-9.21510982513428,1.95313525199890,2.62393474578857,3.44374418258667,1.45282661914825,-1.84540319442749
214,679571829,33.86876296997070,69.93038177490234,102.18064117431641,-9.23771667480469,1.93005716800690,2.63843154907227,3.84729671478271,1.95230436325073,-1.83966577053070
215,679580162,33.91315460205078,69.95499420166016,102.16699218750000,-9.23503780364990,1.88579213619232,2.65106463432312,4.88261175155640,2.60888695716858,-2.03502535820007
216,679588495,33.96669006347656,69.97894287109375,102.18422698974609,-9.25807476043701,1.90717804431915,2.71888089179993,3.98773932456970,3.44712567329407,-2.04419541358948
217,679596828,33.97755813598633,70.00073242187500,102.17879486083984,-9.27338218688965,1.95140850543976,2.77552175521851,0.04622088745236,2.47752404212952,-1.63037168979645
218,679605161,33.94702529907227,69.99916076660156,102.17272949218750,-9.23067092895508,2.00470304489136,2.78152751922607,-3.47711944580078,0.36992076039314,-1.12598896026611
219,679613494,33.89023208618164,70.00639343261719,102.13940429687500,-9.13277530670166,2.06137371063232,2.80947947502136,-5.02122211456299,0.40698456764221,-1.60228562355042
220,679621827,33.87807846069336,70.02596282958984,102.15160369873047,-9.12882614135742,2.15254473686218,2.67626881599426,-3.33239889144897,2.89305114746094,-1.91470265388489
221,679630160,33.92338943481445,70.08382415771484,102.20604705810547,-9.14196777343750,2.07534766197205,2.49462103843689,-2.43529939651489,7.43188190460205,-2.13763594627380
222,679638493,34.00174713134766,70.15646362304688,102.30832672119141,-9.17049121856689,1.98013508319855,2.51510238647461,-2.63813829421997,10.22536945343018,-2.42638540267944
223,679646826,34.06438446044922,70.23404693603516,102.38758850097656,-9.16698455810547,1.92283689975739,2.72970223426819,-3.05705928802490,9.89230823516846,-2.75778269767761
224,679655159,34.09821701049805,70.29680633544922,102.45001220703125,-9.18759822845459,1.90092718601227,2.81053972244263,-3.49229669570923,8.31900596618652,-3.14394307136536
225,679663492,34.12917709350586,70.36308288574219,102.49455261230469,-9.16613674163818,1.84299087524414,2.73484516143799,-3.24458122253418,8.01542472839355,-3.14092040061951
226,679671825,34.13745498657227,70.41445159912109,102.52309417724609,-9.20480442047119,1.77568209171295,2.66530585289001,-2.73657417297363,6.41094970703125,-3.52654290199280
227,679680158,34.11279678344727,70.46632385253906,102.50680541992188,-9.20013713836670,1.70989501476288,2.56720328330994,-2.87431406974792,5.19512987136841,-4.27087831497192
228,679688491,34.07024765014648,70.51944732666016,102.50642395019531,-9.24356746673584,1.71563363075256,2.62620210647583,-5.56666517257690,5.93626594543457,-4.60403108596802
229,679696824,34.00467300415039,70.58477020263672,102.48978424072266,-9.32830905914307,1.78945422172546,2.87667536735535,-8.46266269683838,6.66875696182251,-4.96360445022583
230,679705157,33.93048477172852,70.64778137207031,102.48403167724609,-9.43301391601562,1.84801626205444,2.94039273262024,-8.75648403167725,6.80868673324585,-5.43301010131836
231,679713490,33.86626434326172,70.71283721923828,102.45938110351562,-9.42371559143066,1.89807772636414,2.89943814277649,-7.24939203262329,6.46612262725830,-5.22720003128052
232,679721823,33.83171844482422,70.77568817138672,102.46313476562500,-9.34079265594482,1.94511532783508,2.57551527023315,-5.07904720306396,7.01080894470215,-5.09228944778442
233,679730156,33.79997634887695,70.85099029541016,102.45557403564453,-9.36830329895020,1.80907297134399,2.44765067100525,-4.94886255264282,7.85214757919312,-5.45592260360718
234,679738489,33.71233367919922,70.90294647216797,102.41859436035156,-9.46273231506348,1.75728380680084,2.63908958435059,-6.83701610565186,5.03937101364136,-5.68555402755737
235,679746822,33.60248184204102,70.95287322998047,102.35605621337891,-9.41103649139404,1.77183449268341,2.37774133682251,-7.70202255249023,4.02984952926636,-5.67178630828857
236,679755155,33.51650238037109,71.01850128173828,102.34088897705078,-9.39321708679199,1.70660889148712,2.25108098983765,-9.11160087585449,6.89792776107788,-5.86041021347046
237,679763488,33.45955657958984,71.10008239746094,102.34112548828125,-9.44415855407715,1.73823225498199,2.52636861801147,-9.04346466064453,8.65457725524902,-5.55019521713257
238,679771821,33.44557952880859,71.18077087402344,102.36271667480469,-9.42808055877686,1.83355832099915,2.49069094657898,-4.64496278762817,9.20054435729980,-5.64635133743286
239,679780154,33.44810867309570,71.28399658203125,102.36623382568359,-9.38504219055176,1.64119458198547,2.41375541687012,-2.05602908134460,10.80294513702393,-6.94074106216431
240,679788487,33.42609024047852,71.37946319580078,102.34899139404297,-9.46179294586182,1.49785590171814,2.64250707626343,-1.19971978664398,9.85539913177490,-7.87427854537964
241,679796820,33.37513351440430,71.47659301757812,102.27863311767578,-9.46697425842285,1.41779410839081,2.44410657882690,-0.25036635994911,8.64075756072998,-8.84307193756104
242,679805153,33.28477478027344,71.57089996337891,102.20767211914062,-9.54268074035645,1.29353284835815,2.37672662734985,-3.28847098350525,8.63366317749023,-9.47955989837646
243,679813486,33.14443969726562,71.66520690917969,102.09848022460938,-9.62075805664062,1.26250612735748,2.62891149520874,-6.65684652328491,7.61257791519165,-9.76810550689697
244,679821819,32.96864700317383,71.74553680419922,101.97883605957031,-9.59796905517578,1.27607738971710,2.85681915283203,-7.99071931838989,6.28167390823364,-10.03752708435059
245,679830152,32.76069259643555,71.82695770263672,101.82140350341797,-9.51935577392578,1.38375568389893,2.79351091384888,-8.94864082336426,5.33025884628296,-10.38150119781494
246,679838485,32.54439163208008,71.90303039550781,101.66375732421875,-9.50992298126221,1.44516527652740,2.62312674522400,-8.50846004486084,5.16771078109741,-10.88384819030762
247,679846818,32.34029006958008,71.99069213867188,101.48830413818359,-9.44628429412842,1.46311426162720,2.68230915069580,-6.23335409164429,5.72448873519897,-11.26025104522705
248,679855151,32.17462158203125,72.07511901855469,101.32489776611328,-9.41449165344238,1.45288908481598,2.46089982986450,-1.76174747943878,5.99563980102539,-11.52154064178467
249,679863484,32.02737808227539,72.18137359619141,101.15500640869141,-9.41514778137207,1.37222051620483,2.10998368263245,-0.33011630177498,7.89278411865234,-12.07685756683350
250,679871817,31.84418296813965,72.28208923339844,100.99308013916016,-9.51049804687500,1.33475136756897,2.37431192398071,-4.01206064224243,7.77728986740112,-12.42434120178223
251,679880150,31.61688804626465,72.37222290039062,100.80460357666016,-9.49712276458740,1.43124735355377,2.65299248695374,-7.77387046813965,5.95806455612183,-11.51498317718506
252,679888483,31.40759658813477,72.45126342773438,100.64258575439453,-9.52791976928711,1.42231059074402,2.52260160446167,-7.11806917190552,5.67331075668335,-10.96371364593506
253,679896816,31.18834877014160,72.52846527099609,100.45141601562500,-9.54522132873535,1.32639932632446,2.12458705902100,-6.34923267364502,4.67281913757324,-10.70623970031738
254,679905149,30.97267913818359,72.61489868164062,100.28914642333984,-9.46428585052490,1.24324667453766,2.17210793495178,-7.84331130981445,6.52531719207764,-11.34098625183105
255,679913482,30.74012756347656,72.71817779541016,100.09550476074219,-9.50153446197510,1.14197111129761,2.55270600318909,-7.65998983383179,7.40316867828369,-12.27721214294434
256,679921815,30.52576255798340,72.82009124755859,99.90550231933594,-9.52551269531250,1.13981711864471,2.61117172241211,-4.48951005935669,7.73909854888916,-13.03623867034912
257,679930148,30.34313583374023,72.94738769531250,99.70345306396484,-9.54752063751221,1.18945336341858,2.58610463142395,-1.07646405696869,9.90839481353760,-13.72149658203125
258,679938481,30.18297195434570,73.07785034179688,99.53280639648438,-9.60728168487549,1.16776275634766,2.48896288871765,-0.18075969815254,11.16070079803467,-14.04451847076416
259,679946814,30.02085685729980,73.21792602539062,99.34116363525391,-9.59941196441650,1.19468414783478,2.54767322540283,0.60076928138733,11.51218032836914,-14.08588695526123
260,679955147,29.89583778381348,73.35166931152344,99.18824005126953,-9.57212448120117,1.27518069744110,2.41328263282776,2.02732896804810,11.92800140380859,-13.57913494110107
261,679963480,29.74669075012207,73.48781585693359,99.00874328613281,-9.57949924468994,1.24958252906799,2.28454351425171,0.83580541610718,11.43712997436523,-13.32701110839844
262,679971813,29.56359672546387,73.59822082519531,98.81942749023438,-9.52507591247559,1.09910476207733,2.28916692733765,-0.73133778572083,8.98223590850830,-13.13372707366943
263,679980146,29.33566665649414,73.69981384277344,98.57286071777344,-9.53492069244385,0.98591661453247,2.23271870613098,-0.97554397583008,6.84055233001709,-13.08444690704346
264,679988479,29.12071990966797,73.79008483886719,98.36671447753906,-9.50549983978271,0.95441424846649,2.24814414978027,-2.59497833251953,6.72728490829468,-12.31665706634521
265,679996812,28.85460853576660,73.86133575439453,98.10288238525391,-9.58076286315918,1.06684052944183,2.53275823593140,-3.14924502372742,3.45460486412048,-11.75521945953369
266,680005145,28.57646369934082,73.90363311767578,97.81980895996094,-9.51070404052734,1.19791376590729,2.43841886520386,-1.29861617088318,0.57074928283691,-11.68882751464844
267,680013478,28.29624176025391,73.94756317138672,97.49912261962891,-9.48502635955811,1.06441128253937,2.37176918983459,1.65471804141998,-0.17714805901051,-11.71636104583740
268,680021811,28.02032661437988,73.98166656494141,97.19197082519531,-9.51332187652588,0.86559045314789,2.30349040031433,1.75932681560516,-0.54381585121155,-11.88687610626221
269,680030144,27.72324180603027,74.01477813720703,96.84874725341797,-9.56142330169678,0.84834176301956,2.60856294631958,2.14840698242188,-1.51318681240082,-11.69400215148926
270,680038477,27.42979621887207,74.02387237548828,96.51689910888672,-9.67878055572510,0.87446051836014,2.77465248107910,2.51253938674927,-3.45753836631775,-11.20051765441895
271,680046810,27.11898040771484,74.02716827392578,96.14128112792969,-9.71728324890137,1.14867377281189,2.79990792274475,4.25812435150146,-5.02812719345093,-10.95500659942627
272,680055143,26.87681388854980,74.03649139404297,95.81293487548828,-9.67699813842773,1.37345993518829,2.41873288154602,8.26226997375488,-3.27093863487244,-11.14058113098145
273,680063476,26.65643310546875,74.06716156005859,95.48580169677734,-9.70213413238525,1.37583684921265,2.28581142425537,9.38166236877441,-1.19024229049683,-10.96742725372314
274,680071809,26.49665069580078,74.10929870605469,95.23003387451172,-9.64867973327637,1.27760291099548,2.12089371681213,9.77991199493408,1.40554296970367,-10.75518703460693
275,680080142,26.33927154541016,74.16753387451172,94.97333526611328,-9.64422607421875,1.23503386974335,2.19003105163574,8.83815574645996,2.89529275894165,-10.38183593750000
276,680088475,26.20083236694336,74.21652984619141,94.76715087890625,-9.58278083801270,1.37707650661469,2.18327474594116,6.63007926940918,2.93806838989258,-9.61297225952148
277,680096808,26.03589057922363,74.26622772216797,94.56171417236328,-9.52570343017578,1.44279360771179,2.18614149093628,2.44993782043457,2.69375991821289,-8.49980258941650
278,680105141,25.87942314147949,74.29677581787109,94.38881683349609,-9.49429512023926,1.54031896591187,2.22529578208923,0.63017421960831,1.48709857463837,-7.62533235549927
279,680113474,25.74863433837891,74.32741546630859,94.22698211669922,-9.49377155303955,1.58476531505585,2.10956168174744,1.65507650375366,1.26005375385284,-6.28265953063965
280,680121807,25.63908958435059,74.33237457275391,94.09676361083984,-9.49409866333008,1.51856899261475,2.30643463134766,1.33264446258545,-0.64734852313995,-5.02131175994873
281,680130140,25.53679656982422,74.33604431152344,93.96777343750000,-9.40655326843262,1.45436537265778,2.01417779922485,1.09742915630341,-1.17538607120514,-3.95276331901550
282,680138473,25.46593666076660,74.34758758544922,93.90995788574219,-9.35576820373535,1.29029834270477,1.84957218170166,-2.39249753952026,1.09540545940399,-3.24906325340271
283,680146806,25.36345100402832,74.36711120605469,93.83605957031250,-9.34963035583496,1.17631554603577,1.96104967594147,-5.55078315734863,1.31837737560272,-3.16089892387390
284,680155139,25.25831604003906,74.37946319580078,93.77966308593750,-9.36388492584229,1.14853692054749,2.11268329620361,-6.66683483123779,1.21165585517883,-3.24264693260193
285,680163472,25.15813636779785,74.41236877441406,93.71686553955078,-9.45989990234375,1.12528741359711,2.28320479393005,-6.38520717620850,2.86485028266907,-3.59379339218140
286,680171805,25.10115051269531,74.45176696777344,93.69465637207031,-9.51322460174561,1.20558917522430,2.33784770965576,-4.84710979461670,4.62164068222046,-3.60958385467529
287,680180138,25.05130577087402,74.49890899658203,93.66709899902344,-9.54945278167725,1.19588780403137,2.19589853286743,-4.49824380874634,4.89427852630615,-3.27421665191650
288,680188471,24.98527717590332,74.53759002685547,93.62412261962891,-9.52020835876465,1.06825590133667,2.17069530487061,-3.52682423591614,4.27136611938477,-4.16720581054688
289,680196804,24.89393997192383,74.58627319335938,93.54079437255859,-9.54970741271973,1.04863762855530,2.17341065406799,-3.03997421264648,4.31214332580566,-4.97487354278564
290,680205137,24.81026077270508,74.62560272216797,93.47174072265625,-9.63758182525635,1.14089930057526,2.37537240982056,-2.62622737884521,4.00899934768677,-4.93573474884033
291,680213470,24.76816177368164,74.68647003173828,93.41867065429688,-9.56266593933105,1.20350837707520,2.25920414924622,-0.44189685583115,6.01426219940186,-4.73840379714966
292,680221803,24.78464698791504,74.75129699707031,93.40095520019531,-9.55734443664551,1.18860566616058,1.98177492618561,3.45237708091736,7.47281360626221,-4.72111368179321
293,680230136,24.83852005004883,74.82872772216797,93.39192199707031,-9.60761451721191,1.21066653728485,1.88855481147766,5.71659803390503,8.44044113159180,-4.26620531082153
294,680238469,24.83420944213867,74.86089324951172,93.35285186767578,-9.73629474639893,0.94232106208801,2.16954636573792,3.42425179481506,3.62888431549072,-3.67825579643250
295,680246802,24.78350639343262,74.88609313964844,93.28911590576172,-9.60980987548828,0.67816197872162,2.23248815536499,-0.49496945738792,1.98852276802063,-3.22529315948486
296,680255135,24.73307800292969,74.92191314697266,93.26759338378906,-9.55317401885986,0.64741224050522,2.21438264846802,-4.13822317123413,4.26720285415649,-3.36223959922791
297,680263468,24.62163734436035,74.95079803466797,93.17697143554688,-9.64117240905762,0.74198645353317,2.19413542747498,-4.63047742843628,2.02226948738098,-4.12743949890137
298,680271801,24.52009963989258,74.96875762939453,93.07090759277344,-9.56901168823242,0.89106929302216,2.07920432090759,-0.48147082328796,1.22719085216522,-4.84608602523804
299,680280134,24.46491241455078,75.03318023681641,92.96059417724609,-9.47770690917969,1.02643847465515,2.16102862358093,4.46116733551025,5.66895484924316,-6.40396881103516
300,680288467,24.44248962402344,75.11613464355469,92.86936950683594,-9.62717151641846,1.04593300819397,2.32897973060608,7.29922580718994,8.53314113616943,-7.63119792938232
301,680296800,24.38658523559570,75.19557189941406,92.72092437744141,-9.71462440490723,1.00605535507202,2.11905121803284,8.85752010345459,6.82805252075195,-8.19053745269775
302,680305133,24.32359123229980,75.27153015136719,92.57819366455078,-9.69433593750000,0.80608582496643,1.98763394355774,8.41175556182861,7.14195537567139,-8.67759227752686
303,680313466,24.23172378540039,75.37896728515625,92.41979217529297,-9.69550609588623,0.71821177005768,1.84720647335052,5.93343639373779,9.78000354766846,-9.84475612640381
304,680321799,24.16950035095215,75.50811767578125,92.31566619873047,-9.75742149353027,0.75080174207687,1.86598563194275,4.03289842605591,13.48619174957275,-10.15671253204346
305,680330132,24.08423423767090,75.64540100097656,92.18796539306641,-9.83095932006836,0.85435169935226,1.82360732555389,3.45340204238892,13.40381717681885,-10.40414619445801
306,680338465,23.99091529846191,75.79209899902344,92.07475280761719,-9.75696468353271,0.96958619356155,1.98665726184845,1.37069487571716,15.34751415252686,-11.16956329345703
307,680346798,23.85145378112793,75.94968414306641,91.92572784423828,-9.73865032196045,1.05106675624847,2.26584935188293,-0.77480518817902,15.42183494567871,-11.77763271331787
308,680355131,23.71618270874023,76.09977722167969,91.78993988037109,-9.66266536712646,1.04557061195374,2.15583705902100,-1.01488757133484,15.53366851806641,-11.80250644683838
309,680363464,23.58800315856934,76.25889587402344,91.64096832275391,-9.70686531066895,1.00123834609985,1.86267983913422,0.63739770650864,15.66453361511230,-11.71459865570068
310,680371797,23.42013549804688,76.39385223388672,91.46092987060547,-9.78398895263672,0.85211443901062,2.11416578292847,0.24744638800621,13.44398117065430,-12.07788372039795
311,680380130,23.20584297180176,76.52726745605469,91.22476196289062,-9.79375362396240,0.69821941852570,2.09552454948425,0.67668986320496,11.94475364685059,-12.63460922241211
312,680388463,22.95439147949219,76.64836120605469,90.94439697265625,-9.82394695281982,0.46220937371254,1.76121652126312,1.95069050788879,10.94067287445068,-13.80748367309570
313,680396796,22.65170860290527,76.78526306152344,90.60536193847656,-9.80022811889648,0.38481345772743,1.81899976730347,2.15808939933777,11.39632606506348,-15.19654464721680
314,680405129,22.28911972045898,76.91433715820312,90.22788238525391,-9.85806369781494,0.33771696686745,1.85180175304413,0.00024333529291,11.00181579589844,-16.37359619140625
315,680413462,21.85367774963379,77.05918884277344,89.78984069824219,-9.71524620056152,0.46197217702866,1.81763803958893,-1.86871290206909,11.46884250640869,-17.71242904663086
316,680421795,21.41138458251953,77.20883178710938,89.33980560302734,-9.66748428344727,0.61314487457275,1.98312282562256,-1.02180361747742,12.89345645904541,-18.73090553283691
317,680430128,20.95196723937988,77.38347625732422,88.86443328857422,-9.63769054412842,0.70288527011871,1.42773830890656,-0.35227274894714,14.79598331451416,-19.42185020446777
318,680438461,20.50528717041016,77.56288909912109,88.41416168212891,-9.61986351013184,0.70967626571655,1.51235759258270,-1.46049880981445,16.61405372619629,-19.50760459899902
319,680446794,20.05184745788574,77.76458740234375,87.96015167236328,-9.60789108276367,0.80237025022507,1.69949293136597,-1.99386453628540,18.42383193969727,-19.46842002868652
320,680455127,19.55327987670898,77.94412231445312,87.49187469482422,-9.74010181427002,0.70795428752899,1.66183078289032,-5.49351310729980,16.89427375793457,-19.35174369812012
321,680463460,18.97936630249023,78.12237548828125,86.97667694091797,-9.64021015167236,0.57535487413406,1.76107215881348,-9.15366363525391,15.68052101135254,-19.34654808044434
322,680471793,18.42361831665039,78.30356597900391,86.48949432373047,-9.56591129302979,0.62609672546387,1.86530816555023,-10.06519699096680,17.38899040222168,-19.20853614807129
323,680480126,17.85359573364258,78.49256134033203,85.97821044921875,-9.58009719848633,0.76797670125961,1.80238056182861,-8.98801517486572,17.40459060668945,-18.99919128417969
324,680488459,17.27410888671875,78.66443634033203,85.43930053710938,-9.61688232421875,0.79644268751144,1.51929056644440,-6.75563001632690,16.42394828796387,-19.35878944396973
325,680496792,16.64272308349609,78.84391021728516,84.84881591796875,-9.55891990661621,0.66565477848053,1.43088829517365,-7.15813302993774,16.27692031860352,-19.69385147094727
326,680505125,16.03112792968750,79.03127288818359,84.29460906982422,-9.56415939331055,0.67383927106857,1.58575844764709,-8.72460937500000,18.60690689086914,-19.49289131164551
327,680513458,15.38888931274414,79.22209167480469,83.69717407226562,-9.62078952789307,0.51240164041519,1.61870491504669,-7.64721155166626,18.07040596008301,-19.44039916992188
328,680521791,14.71622180938721,79.40790557861328,83.07277679443359,-9.57473564147949,0.25128430128098,1.23832619190216,-7.70071983337402,18.53553771972656,-20.12360954284668
329,680530124,13.96789455413818,79.59642791748047,82.39384460449219,-9.67336082458496,0.18145063519478,1.20673942565918,-10.72253608703613,17.92392158508301,-20.22990608215332
330,680538457,13.17542743682861,79.76092529296875,81.69317626953125,-9.65889263153076,0.14589788019657,1.31197214126587,-12.97779369354248,16.26944351196289,-20.19606971740723
331,680546790,12.32899761199951,79.93257141113281,80.93534851074219,-9.56297588348389,0.21517182886600,1.56918883323669,-12.96470451354980,16.16621971130371,-20.42711257934570
332,680555123,11.47772598266602,80.09667205810547,80.18591308593750,-9.56161975860596,0.33606532216072,1.75212001800537,-14.19401073455811,16.65911483764648,-20.23479843139648
333,680563456,10.59358978271484,80.26697540283203,79.38166046142578,-9.55411338806152,0.34251210093498,1.66547060012817,-12.21250438690186,16.53328323364258,-20.25120544433594
334,680571789,9.72831630706787,80.42787933349609,78.58786010742188,-9.58418178558350,0.33420392870903,1.36255133152008,-10.53619289398193,16.79748153686523,-20.04248809814453
335,680580122,8.82715511322021,80.58917236328125,77.75189971923828,-9.61894035339355,0.15405997633934,1.31913495063782,-10.36752223968506,16.07134056091309,-19.65453338623047
336,680588455,7.93623256683350,80.71096801757812,76.92954254150391,-9.71347332000732,-0.01395738683641,1.54246532917023,-10.15077304840088,12.72909069061279,-18.90369987487793
337,680596788,7.02373552322388,80.81147003173828,76.06994628906250,-9.69192504882812,-0.01819197461009,1.69161033630371,-8.99385261535645,9.42287826538086,-18.18841934204102
338,680605121,6.13541936874390,80.89717864990234,75.21787261962891,-9.63693714141846,0.07190421223640,1.48937392234802,-6.25715017318726,8.96481990814209,-18.23629188537598
339,680613454,5.22690582275391,80.97291564941406,74.31053161621094,-9.65893650054932,0.25189739465714,1.41001188755035,-2.72540640830994,6.97589731216431,-18.16277694702148
340,680621787,4.35928297042847,81.03823089599609,73.43701171875000,-9.62115001678467,0.45945310592651,1.15637254714966,-1.19285535812378,7.04792547225952,-17.89393043518066
341,680630120,3.48936390876770,81.11117553710938,72.55724334716797,-9.67521667480469,0.59084099531174,1.15478479862213,-1.54225921630859,7.25967836380005,-17.10998153686523
342,680638453,2.67457485198975,81.15975952148438,71.75463867187500,-9.69452476501465,0.44506153464317,1.12367653846741,-3.23034024238586,5.62046957015991,-16.04125213623047
343,680646786,1.89442431926727,81.21797180175781,70.98263549804688,-9.68995761871338,0.31741118431091,1.14193379878998,-3.24768042564392,6.03621292114258,-14.73799800872803
344,680655119,1.20513606071472,81.26158142089844,70.30120849609375,-9.78661823272705,0.33702731132507,1.04163956642151,-2.51803326606750,5.48624944686890,-13.49601364135742
345,680663452,0.53646683692932,81.30635833740234,69.64393615722656,-9.82113552093506,0.30077904462814,1.16776788234711,-3.50666642189026,4.78103876113892,-12.35746288299561
346,680671785,-0.08337301760912,81.34957885742188,69.03714752197266,-9.69165229797363,0.42096862196922,1.31455755233765,-3.01113295555115,5.74672031402588,-11.90214157104492
347,680680118,-0.71317332983017,81.40586853027344,68.42536926269531,-9.71643352508545,0.34425887465477,1.22474992275238,-3.54413986206055,6.38259458541870,-11.43406772613525
348,680688451,-1.30852615833282,81.45494079589844,67.86356353759766,-9.73126888275146,0.24318206310272,1.14986455440521,-5.40683317184448,6.65682125091553,-10.84150886535645
349,680696784,-1.87588441371918,81.50252532958984,67.34363555908203,-9.78773593902588,0.19991357624531,1.21772873401642,-7.73019838333130,5.49229431152344,-9.49893760681152
350,680705117,-2.35663557052612,81.52140808105469,66.92706298828125,-9.78878879547119,0.14319780468941,1.20618009567261,-8.86967277526855,3.13084125518799,-8.19271469116211
351,680713450,-2.83520245552063,81.54144287109375,66.50341796875000,-9.81644058227539,0.15935674309731,0.99782097339630,-8.25982284545898,2.26031541824341,-7.85960054397583
352,680721783,-3.29121184349060,81.54949951171875,66.09832000732422,-9.79024028778076,0.13531184196472,0.96811479330063,-7.25856256484985,1.94241702556610,-7.98544311523438
353,680730116,-3.74322533607483,81.57014465332031,65.68470001220703,-9.74880599975586,0.08569001406431,0.92763161659241,-6.69041347503662,2.41261792182922,-7.58260869979858
354,680738449,-4.10691785812378,81.57131195068359,65.37437438964844,-9.81314945220947,0.00837905146182,1.09359884262085,-7.42472124099731,1.10718822479248,-6.33493804931641
355,680746782,-4.44742202758789,81.58917236328125,65.07978820800781,-9.74200153350830,-0.03467139601707,1.16641211509705,-7.52331066131592,1.95473778247833,-5.48662042617798
356,680755115,-4.69085979461670,81.57537841796875,64.89251708984375,-9.85392093658447,-0.08262409269810,1.62839305400848,-7.61219215393066,-0.80080348253250,-4.30736637115479
357,680763448,-4.85889148712158,81.53974914550781,64.77008056640625,-9.88089752197266,-0.07069105654955,1.58082759380341,-7.35069751739502,-4.65682220458984,-2.99261379241943
358,680771781,-4.96760749816895,81.50299072265625,64.69642639160156,-9.75098037719727,0.05288960039616,1.26610410213470,-4.93248176574707,-3.69523739814758,-2.57136201858521
359,680780114,-5.08212041854858,81.49841308593750,64.59112548828125,-9.76341342926025,-0.03854002431035,0.98185831308365,-3.12045383453369,-0.92467379570007,-2.38066363334656
360,680788447,-5.15396738052368,81.48634338378906,64.54473876953125,-9.85565185546875,-0.08166806399822,1.13768672943115,-3.74715805053711,-0.78510189056396,-1.84427618980408
361,680796780,-5.18144416809082,81.46673583984375,64.53768157958984,-9.89424228668213,-0.07704927772284,1.24819147586823,-4.32168436050415,-2.88359904289246,-0.83100259304047
362,680805113,-5.12819004058838,81.42266082763672,64.62473297119141,-9.87668418884277,-0.03658825159073,1.21432375907898,-4.56568622589111,-4.82085466384888,0.17864647507668
363,680813446,-5.05033731460571,81.38103485107422,64.73193359375000,-9.80646228790283,0.00748481415212,1.16882097721100,-5.33285903930664,-5.72744607925415,0.98006480932236
364,680821779,-4.93578624725342,81.34185791015625,64.89085388183594,-9.73808383941650,-0.12435374408960,1.43011045455933,-5.74806499481201,-4.35344696044922,1.55308079719543
365,680830112,-4.83493232727051,81.32295989990234,65.01320648193359,-9.73310470581055,-0.16697198152542,1.36420953273773,-4.45241975784302,-3.03159832954407,1.51770746707916
366,680838445,-4.69478797912598,81.29563903808594,65.16875457763672,-9.80305957794189,-0.13008338212967,1.40610289573669,-2.27559375762939,-2.91720485687256,1.64741766452789
367,680846778,-4.53042078018188,81.27687835693359,65.32973480224609,-9.69902706146240,-0.06569125503302,1.63268685340881,-1.30947649478912,-3.06661295890808,2.22647881507874
368,680855111,-4.33830308914185,81.25057220458984,65.52210998535156,-9.67435932159424,-0.08091550320387,1.49838936328888,-0.40581911802292,-2.83945322036743,2.36296439170837
369,680863444,-4.16811466217041,81.24904632568359,65.68756866455078,-9.66061687469482,-0.09748697280884,1.26772964000702,-1.31085979938507,-0.97042101621628,2.50900435447693
370,680871777,-3.96504306793213,81.25044250488281,65.89995574951172,-9.80103015899658,-0.00175685319118,1.33135533332825,-1.46236789226532,0.46721643209457,2.99244713783264
371,680880110,-3.74320578575134,81.25358581542969,66.11401367187500,-9.75967884063721,0.06495773792267,1.15376806259155,-0.81619769334793,-0.42112368345261,3.42028188705444
372,680888443,-3.47634553909302,81.23689270019531,66.38259887695312,-9.77241611480713,0.03123170696199,1.37840056419373,-0.48359677195549,-1.74161422252655,3.88246536254883
373,680896776,-3.20702886581421,81.22805786132812,66.65628814697266,-9.75509357452393,0.03161401301622,1.52310562133789,-2.11092042922974,-1.89926981925964,4.40174198150635
374,680905109,-2.92850804328918,81.21459197998047,66.97279357910156,-9.74931526184082,-0.01823806390166,1.54713726043701,-4.77439117431641,-1.35681176185608,4.81961297988892
375,680913442,-2.66713404655457,81.20453643798828,67.27620697021484,-9.74133396148682,-0.03326483815908,1.32277703285217,-6.64615058898926,-2.00157308578491,4.95600843429565
376,680921775,-2.38325500488281,81.18659973144531,67.62044525146484,-9.76596069335938,0.00511133018881,1.09661841392517,-7.41931772232056,-1.86735475063324,5.33873701095581
377,680930108,-2.08110523223877,81.17417144775391,67.96819305419922,-9.78109550476074,0.01105039194226,1.15547740459442,-6.91914892196655,-2.25131225585938,5.77043962478638
378,680938441,-1.77235615253448,81.14788055419922,68.32018280029297,-9.73935604095459,-0.04684955254197,1.11761200428009,-5.34850835800171,-2.81029129028320,5.49969625473022
379,680946774,-1.47163760662079,81.13312530517578,68.64402008056641,-9.75146484375000,-0.03198547661304,1.23482906818390,-4.27791023254395,-2.48885846138000,5.35953617095947
380,680955107,-1.17459762096405,81.09457397460938,68.98246765136719,-9.83325290679932,-0.18197776377201,1.43898248672485,-5.14548969268799,-4.20329570770264,5.28586864471436
381,680963440,-0.91812855005264,81.06137084960938,69.27201843261719,-9.76615047454834,-0.29866087436676,1.62182378768921,-5.53492879867554,-4.63848161697388,4.74504995346069
382,680971773,-0.74148666858673,81.03144073486328,69.49309539794922,-9.73873996734619,-0.35938537120819,1.47873079776764,-5.67941904067993,-3.09471201896667,3.19625973701477
383,680980106,-0.63095504045486,81.01606750488281,69.62506103515625,-9.71040439605713,-0.24147316813469,1.32045829296112,-4.47368001937866,-2.39961862564087,1.92069637775421
384,680988439,-0.54211568832397,81.03171539306641,69.72654724121094,-9.63302707672119,-0.10960980504751,1.06691610813141,-2.03720283508301,2.41733074188232,1.03933596611023
385,680996772,-0.48027709126472,81.06919860839844,69.77882385253906,-9.70019721984863,-0.19072413444519,1.30297005176544,-0.97784894704819,3.95018911361694,0.53496611118317
386,681005105,-0.42193615436554,81.08822631835938,69.83657073974609,-9.71157455444336,-0.29563122987747,1.37512373924255,-0.51512789726257,2.82769632339478,0.21366114914417
387,681013438,-0.41806921362877,81.12052917480469,69.83428955078125,-9.71849250793457,-0.46461513638496,1.54765760898590,-1.51941049098969,3.34274697303772,-0.47545135021210
388,681021771,-0.46450254321098,81.13299560546875,69.80223846435547,-9.73928737640381,-0.40513652563095,1.68425917625427,-2.45051383972168,2.05540156364441,-1.45704019069672
389,681030104,-0.57245248556137,81.14572143554688,69.70809173583984,-9.78425312042236,-0.27241125702858,1.41188716888428,-3.81256389617920,0.98609685897827,-2.18306326866150
390,681038437,-0.68492525815964,81.15033721923828,69.62962341308594,-9.79281234741211,-0.00385396694764,1.21581780910492,-4.87733507156372,1.11648595333099,-2.31921529769897
391,681046770,-0.82353997230530,81.17685699462891,69.52094268798828,-9.76634120941162,0.15650822222233,1.37663233280182,-6.02941226959229,2.69755029678345,-2.34295988082886
392,681055103,-0.92779612541199,81.19853210449219,69.45715332031250,-9.78008270263672,0.23756937682629,1.33188402652740,-5.62667894363403,3.17535829544067,-2.00769495964050
393,681063436,-1.07396578788757,81.24370574951172,69.34788513183594,-9.74896621704102,0.19982026517391,1.03233528137207,-6.67914295196533,4.92824363708496,-2.33389258384705
394,681071769,-1.22171223163605,81.28566741943359,69.26232910156250,-9.75893878936768,0.03149955347180,1.19139921665192,-8.26438236236572,5.61695909500122,-2.33099794387817
395,681080102,-1.40331387519836,81.32477569580078,69.14536285400391,-9.76304817199707,-0.09234851598740,1.31341361999512,-10.31713294982910,4.18161439895630,-2.43253302574158
396,681088435,-1.61074054241180,81.34796142578125,69.01765441894531,-9.69647026062012,-0.15455511212349,1.35801804065704,-10.44453811645508,3.37896609306335,-3.10303664207458
397,681096768,-1.87141740322113,81.39118194580078,68.80604553222656,-9.67627334594727,-0.20999644696712,1.24799346923828,-8.30690193176270,4.75842142105103,-4.11728429794312
398,681105101,-2.16496777534485,81.43676757812500,68.56735229492188,-9.68257045745850,-0.29449746012688,1.17650270462036,-7.60747909545898,6.15867471694946,-4.94964408874512
399,681113434,-2.52326869964600,81.50507354736328,68.24602508544922,-9.64982700347900,-0.33053776621819,1.26436722278595,-6.86113262176514,7.88515138626099,-5.85487699508667
400,681121767,-2.94782853126526,81.58077239990234,67.85918426513672,-9.59582901000977,-0.36968660354614,1.20877277851105,-5.73571872711182,9.94512557983398,-7.25113487243652
401,681130100,-3.45022392272949,81.67520141601562,67.37283325195312,-9.68409156799316,-0.33650863170624,1.34400534629822,-4.87981986999512,11.21080112457275,-8.25900363922119
402,681138433,-3.95925283432007,81.74640655517578,66.89325714111328,-9.76897048950195,-0.21374551951885,1.21126437187195,-4.83658266067505,9.60355949401855,-8.59624099731445
403,681146766,-4.48800659179688,81.80116271972656,66.38088989257812,-9.81990146636963,-0.14794364571571,1.20951259136200,-4.66496753692627,6.63389587402344,-8.70907306671143
404,681155099,-4.99563455581665,81.83312225341797,65.90179443359375,-9.75442218780518,-0.13760063052177,1.24597823619843,-4.71873188018799,5.04051113128662,-8.70300197601318
405,681163432,-5.53817987442017,81.87651062011719,65.38120269775391,-9.72827816009521,-0.15604832768440,1.23294186592102,-5.50303888320923,5.43504619598389,-8.72648811340332
406,681171765,-6.09322309494019,81.91821289062500,64.87834930419922,-9.76485729217529,-0.11071424186230,1.28472065925598,-7.58493947982788,6.36848068237305,-8.81849575042725
407,681180098,-6.63613176345825,81.96138763427734,64.37688446044922,-9.80277729034424,0.10506869852543,1.54692912101746,-7.84756231307983,5.50530672073364,-8.20244789123535
408,681188431,-7.10539054870605,81.98602294921875,63.94107055664062,-9.75895786285400,0.20397564768791,1.39726126194000,-5.24866437911987,4.34101152420044,-7.75852632522583
409,681196764,-7.61032772064209,82.03169250488281,63.43104553222656,-9.64248657226562,0.16087222099304,1.03577864170074,-2.29980015754700,5.96930885314941,-8.14376544952393
410,681205097,-8.17082786560059,82.09569549560547,62.87601089477539,-9.66244411468506,0.05886034294963,0.79431128501892,-2.01826119422913,9.39297199249268,-8.91686725616455
411,681213430,-8.80408573150635,82.17328643798828,62.25249481201172,-9.71733188629150,-0.01684318669140,0.84205818176270,-4.26249074935913,10.16212844848633,-9.19904613494873
412,681221763,-9.43459701538086,82.23441314697266,61.67851638793945,-9.76108741760254,-0.10214830189943,0.88483738899231,-8.15372943878174,9.24749660491943,-8.92103099822998
413,681230096,-10.10157585144043,82.29625701904297,61.08074188232422,-9.76303291320801,-0.13729462027550,0.87014198303223,-11.18486881256104,8.37333393096924,-8.75087547302246
414,681238429,-10.77013397216797,82.36243438720703,60.50066757202148,-9.74042320251465,-0.10088823735714,0.87065947055817,-11.97166156768799,10.02202129364014,-8.55589962005615
415,681246762,-11.46009159088135,82.45324707031250,59.87220382690430,-9.75334072113037,-0.02653141506016,1.00820338726044,-10.43572902679443,11.97387695312500,-8.17340278625488
416,681255095,-12.17214298248291,82.54949951171875,59.23137283325195,-9.75999927520752,-0.05989637970924,1.00593447685242,-9.93069362640381,13.89502239227295,-8.31443405151367
417,681263428,-12.92648696899414,82.65270996093750,58.53627777099609,-9.77692604064941,-0.06109005212784,1.07644498348236,-10.08535099029541,13.76169872283936,-8.33407974243164
418,681271761,-13.63094139099121,82.73652648925781,57.90143966674805,-9.88814830780029,-0.09668246656656,1.08973824977875,-9.71232986450195,11.42444992065430,-7.87758255004883
419,681280094,-14.21612834930420,82.78232574462891,57.37261962890625,-9.95169925689697,-0.15514375269413,1.22415912151337,-8.03252315521240,7.75654220581055,-7.29529333114624
420,681288427,-14.78553390502930,82.82006835937500,56.85639953613281,-9.83916282653809,-0.26442039012909,0.82574981451035,-7.60576391220093,6.85151481628418,-7.23558759689331
421,681296760,-15.40472030639648,82.86457824707031,56.30946350097656,-9.88064479827881,-0.31659460067749,0.94917649030685,-9.88520145416260,6.69921159744263,-7.28996610641479
422,681305093,-16.01317024230957,82.90621948242188,55.77805709838867,-9.79231643676758,-0.36411046981812,1.05655920505524,-10.41144657135010,6.34683752059937,-7.04752826690674
423,681313426,-16.61425590515137,82.95380401611328,55.25706481933594,-9.77603816986084,-0.27535021305084,1.10041737556458,-10.83541202545166,8.14326667785645,-6.63493347167969
424,681321759,-17.18736648559570,82.99881744384766,54.75462341308594,-9.80800819396973,-0.21221336722374,1.12988090515137,-9.61988830566406,6.71557903289795,-6.28591299057007
425,681330092,-17.74096679687500,83.04207611083984,54.26159667968750,-9.76430130004883,-0.24320010840893,0.96599775552750,-8.44959926605225,7.61766147613525,-6.15210390090942
426,681338425,-18.32003784179688,83.09397125244141,53.74373626708984,-9.79166030883789,-0.31791329383850,0.93888586759567,-8.53048801422119,7.65457105636597,-6.01450395584106
427,681346758,-18.85605812072754,83.13372802734375,53.27697372436523,-9.83994865417480,-0.34696772694588,0.83660721778870,-9.46594524383545,7.16557025909424,-5.69683694839478
428,681355091,-19.41668128967285,83.17166137695312,52.79124832153320,-9.85737419128418,-0.35563084483147,0.84227412939072,-10.10440731048584,5.98170614242554,-5.89652585983276
429,681363424,-19.95078086853027,83.20269012451172,52.34178161621094,-9.78176403045654,-0.34659951925278,0.77289611101151,-11.28238105773926,6.16433525085449,-5.62130069732666
430,681371757,-20.51346206665039,83.24959564208984,51.86312103271484,-9.75849723815918,-0.29115918278694,0.76476395130157,-11.22697925567627,8.13458347320557,-5.26121711730957
431,681380090,-21.10294914245605,83.31898498535156,51.35447692871094,-9.81552219390869,-0.27702215313911,0.76151674985886,-10.85582637786865,9.69367122650146,-4.54588747024536
432,681388423,-21.60701942443848,83.37640380859375,50.93202972412109,-9.91377639770508,-0.27576875686646,0.84898030757904,-10.82836818695068,7.93438243865967,-3.80596876144409
433,681396756,-21.97333717346191,83.40804290771484,50.63471221923828,-9.81281852722168,-0.29071560502052,0.89298087358475,-9.25560092926025,5.55896806716919,-3.24842309951782
434,681405089,-22.36698532104492,83.44838714599609,50.30366134643555,-9.83424758911133,-0.38884398341179,0.87741148471832,-8.50910091400146,5.56811237335205,-3.24376177787781
435,681413422,-22.69232559204102,83.47309875488281,50.03879547119141,-9.88956737518311,-0.45953798294067,0.90041649341583,-8.22206687927246,4.61408376693726,-3.05905652046204
436,681421755,-22.98816871643066,83.49645233154297,49.79811859130859,-9.82204723358154,-0.44078755378723,0.91741985082626,-7.53852605819702,4.36106729507446,-2.78124523162842
437,681430088,-23.25877189636230,83.51983642578125,49.58147048950195,-9.83789157867432,-0.43057107925415,1.02210235595703,-7.36647415161133,3.09549331665039,-2.46713733673096
438,681438421,-23.49312210083008,83.53337860107422,49.39559936523438,-9.80979061126709,-0.45166164636612,0.86265671253204,-6.65404081344604,1.89118885993958,-2.52371978759766
439,681446754,-23.78834915161133,83.55138397216797,49.14792633056641,-9.76103591918945,-0.40608745813370,0.56517028808594,-6.65880441665649,3.79619622230530,-3.04980993270874
440,681455087,-24.16932487487793,83.58803558349609,48.83133697509766,-9.76362800598145,-0.27969941496849,0.48908919095993,-8.69413852691650,5.12211751937866,-2.96623134613037
441,681463420,-24.53418350219727,83.62508392333984,48.55556488037109,-9.77594470977783,-0.20158272981644,0.51488852500916,-11.63649654388428,6.06262063980103,-2.37128901481628
442,681471753,-24.85109519958496,83.66451263427734,48.34204101562500,-9.84947490692139,-0.16141197085381,0.65684568881989,-13.32219505310059,5.96428775787354,-1.45645117759705
443,681480086,-25.08340835571289,83.69571685791016,48.20635604858398,-9.84607696533203,-0.22961799800396,0.95685732364655,-12.41204452514648,3.49410223960876,-0.93110311031342
444,681488419,-25.29190063476562,83.72209167480469,48.07884597778320,-9.84188747406006,-0.30012646317482,0.85669529438019,-10.57757759094238,2.91286396980286,-1.08653032779694
445,681496752,-25.42032241821289,83.72589874267578,48.02616119384766,-9.91648292541504,-0.37798163294792,1.17784249782562,-9.87157154083252,1.18974292278290,-1.27914929389954
446,681505085,-25.63406753540039,83.74913024902344,47.88853073120117,-9.79236125946045,-0.40078049898148,1.03907740116119,-9.92134284973145,2.67065572738647,-1.35258543491364
447,681513418,-25.90435218811035,83.77225494384766,47.69921493530273,-9.84270572662354,-0.47989344596863,0.77085816860199,-10.62235164642334,4.03533077239990,-1.87296426296234
448,681521751,-26.18633842468262,83.78921508789062,47.50628662109375,-9.81014347076416,-0.51341223716736,0.47176614403725,-11.58298778533936,3.40555381774902,-2.21447873115540
449,681530084,-26.53304862976074,83.82822418212891,47.26252365112305,-9.67814540863037,-0.49446666240692,0.11737038195133,-13.18096065521240,4.99017953872681,-1.68049895763397
450,681538417,-26.94322586059570,83.88522338867188,46.96770095825195,-9.65627861022949,-0.44340151548386,0.01322214305401,-14.79038047790527,7.14136648178101,-1.23565673828125
451,681546750,-27.36511230468750,83.94567108154297,46.67762374877930,-9.71366214752197,-0.43566972017288,-0.00776551151648,-16.77125930786133,8.60724449157715,-0.82367730140686
452,681555083,-27.85507202148438,84.02420806884766,46.33890533447266,-9.77125263214111,-0.40897038578987,-0.03458215668797,-19.09623908996582,9.57738399505615,-0.34901970624924
453,681563416,-28.12116622924805,84.07453918457031,46.23006057739258,-9.83756542205811,-0.39536097645760,0.62808513641357,-19.68692970275879,6.43969011306763,0.78987932205200
454,681571749,-27.98414421081543,84.07133483886719,46.50685501098633,-9.72365093231201,-0.54389959573746,1.48635959625244,-17.34906196594238,-1.47919666767120,1.99362015724182
455,681580082,-27.79083442687988,84.05861663818359,46.80064010620117,-9.75616645812988,-0.71874719858170,1.91020381450653,-12.59969425201416,-3.84331369400024,1.55994546413422
456,681588415,-27.83243942260742,84.04872894287109,46.80952835083008,-9.98536396026611,-0.92392593622208,2.16201090812683,-6.76100587844849,-1.76733112335205,-1.38575577735901
457,681596748,-27.94599342346191,84.00599670410156,46.72271728515625,-10.28102684020996,-1.03742814064026,1.67511212825775,-4.02678823471069,-3.57031679153442,-4.21215820312500
458,681605081,-28.17243003845215,83.97520446777344,46.53946304321289,-10.07516670227051,-0.96910154819489,0.43938300013542,-6.01998662948608,-2.73741936683655,-4.65515708923340
459,681613414,-28.58419036865234,83.98777770996094,46.21250915527344,-9.69872474670410,-0.77306538820267,-0.38747715950012,-11.13084411621094,3.75623774528503,-3.74651718139648
460,681621747,-29.15379905700684,84.03675079345703,45.75700378417969,-9.52677059173584,-0.65754580497742,-0.49311804771423,-14.74786090850830,8.36252403259277,-3.01023697853088
461,681630080,-29.79859924316406,84.09927368164062,45.21946716308594,-9.50182819366455,-0.62703067064285,-0.26516824960709,-13.93032836914062,9.16253280639648,-2.97232747077942
462,681638413,-30.44748878479004,84.15823364257812,44.65197753906250,-9.56306362152100,-0.67194849252701,-0.11129038780928,-10.84504318237305,8.87170886993408,-3.31678748130798
463,681646746,-31.01062965393066,84.20096588134766,44.15464782714844,-9.61194705963135,-0.65843564271927,-0.06227015331388,-8.95811843872070,7.95697402954102,-3.43182110786438
464,681655079,-31.49058151245117,84.23564147949219,43.75016403198242,-9.65810203552246,-0.57566702365875,0.10611470043659,-10.06442260742188,6.55413341522217,-2.87499332427979
465,681663412,-31.79659080505371,84.24922943115234,43.53389739990234,-9.63838577270508,-0.56298732757568,1.20206904411316,-11.58288764953613,1.94421041011810,-2.18376755714417
466,681671745,-32.10466384887695,84.26058959960938,43.33568191528320,-9.40291404724121,-0.91930568218231,2.20202279090881,-14.00539302825928,1.60188901424408,-2.12666082382202
467,681680078,-32.49195098876953,84.25151062011719,43.01862335205078,-10.00838947296143,-1.09614717960358,2.65427780151367,-9.38638973236084,1.55669248104095,-4.65341520309448
468,681688411,-32.85419464111328,84.19241333007812,42.64714813232422,-10.71512985229492,-1.22845971584320,2.26659202575684,0.20087964832783,-4.16372251510620,-8.37626552581787
469,681696744,-33.04910278320312,84.08881378173828,42.41762161254883,-10.79278564453125,-1.44903099536896,1.69252014160156,3.24992203712463,-8.46340560913086,-9.97682285308838
470,681705077,-33.49394607543945,84.03787231445312,41.98750686645508,-10.06423950195312,-1.27399003505707,0.08570534735918,-2.79302763938904,-1.72119987010956,-8.66370868682861
471,681713410,-34.59781646728516,84.11103820800781,40.98876571655273,-9.51596260070801,-0.88143545389175,-1.27031898498535,-13.94562339782715,13.68401241302490,-6.04642152786255
472,681721743,-35.95444488525391,84.23690032958984,39.76136016845703,-9.45836925506592,-0.64773005247116,-0.92076420783997,-16.95494461059570,20.32840347290039,-4.15342760086060
473,681730076,-36.85716629028320,84.31811523437500,38.93663787841797,-9.53100013732910,-0.55672740936279,0.02166315913200,-10.62430000305176,14.13807582855225,-3.00739383697510
474,681738409,-37.21615600585938,84.34889984130859,38.57455062866211,-9.70582485198975,-0.54030883312225,0.41145795583725,-0.51156747341156,4.80196475982666,-1.86323082447052
475,681746742,-37.09019851684570,84.33932495117188,38.64600372314453,-9.86097240447998,-0.54176265001297,0.37426310777664,5.82010507583618,-0.99037444591522,-0.87065351009369
476,681755075,-36.79284286499023,84.31948852539062,38.88476181030273,-9.97254562377930,-0.55651801824570,0.43207469582558,6.43651199340820,-3.14266204833984,-0.00573758920655
477,681763408,-36.54570770263672,84.31638336181641,39.08906936645508,-9.95820331573486,-0.46552419662476,1.04644036293030,4.55066347122192,-2.52448797225952,1.04988908767700
478,681771741,-36.21675491333008,84.31617736816406,39.38843917846680,-9.94128990173340,-0.71962487697601,2.26366639137268,3.05089879035950,-2.86239051818848,2.17783737182617
479,681780074,-36.03908538818359,84.34445953369141,39.53277969360352,-10.22328090667725,-0.63304829597473,2.68751955032349,3.31090879440308,2.15698742866516,2.53249216079712
480,681788407,-36.05046463012695,84.39422607421875,39.46420669555664,-10.86418914794922,-0.81215167045593,2.50718426704407,6.13003826141357,4.74789428710938,2.19694590568542
481,681796740,-35.66140747070312,84.38745117187500,39.82934188842773,-10.73257923126221,-0.90459191799164,1.03291928768158,2.33562135696411,-2.73088765144348,2.15329909324646
482,681805073,-35.06319427490234,84.38616180419922,40.43450927734375,-9.97815036773682,-0.61776971817017,-0.13416498899460,-1.23263394832611,-3.79036903381348,4.86095428466797
483,681813406,-34.68642807006836,84.44992065429688,40.83446884155273,-9.46709442138672,-0.46896854043007,-0.84007751941681,-3.26650667190552,3.12364315986633,7.54542875289917
484,681821739,-34.54886627197266,84.54935455322266,40.97707748413086,-9.30297279357910,-0.64334839582443,-0.52450221776962,-1.23662972450256,8.31595611572266,7.47160911560059
485,681830072,-34.16152191162109,84.61911773681641,41.29867935180664,-9.50813865661621,-0.76919740438461,0.56494903564453,7.29907131195068,5.27557229995728,6.88504314422607
486,681838405,-33.36181259155273,84.63378143310547,41.96538543701172,-9.76844406127930,-0.60681575536728,0.74160724878311,15.62695407867432,-3.31007742881775,6.57685422897339
487,681846738,-32.22246551513672,84.60243225097656,42.96659088134766,-9.89296054840088,-0.41424751281738,0.28594920039177,16.34161758422852,-8.84113979339600,6.59478330612183
488,681855071,-31.07151794433594,84.57978820800781,44.00852584838867,-9.99030208587646,-0.32935857772827,0.23005343973637,12.88597297668457,-8.07419681549072,7.75882196426392
489,681863404,-29.96518516540527,84.57270812988281,45.05619049072266,-10.06702327728271,-0.30623170733452,0.68816804885864,6.91764974594116,-7.38125467300415,9.18858242034912
490,681871737,-28.96335220336914,84.58905029296875,46.05319976806641,-9.95718383789062,-0.37945675849915,1.24724829196930,0.41060900688171,-4.50559520721436,10.14432621002197
491,681880070,-28.13994598388672,84.63531494140625,46.88859939575195,-10.01401138305664,-0.34981891512871,1.98483228683472,-1.75291037559509,0.80273741483688,10.08672046661377
492,681888403,-27.23683357238770,84.65756988525391,47.76185989379883,-10.21043586730957,-0.47229498624802,1.80037140846252,3.30399322509766,-2.71595454216003,9.24875068664551
493,681896736,-26.05733108520508,84.63568115234375,48.87757873535156,-10.00713729858398,-0.60226392745972,0.98450297117233,7.47276306152344,-7.53816890716553,9.14527034759521
494,681905069,-24.82056617736816,84.62189483642578,50.04819869995117,-9.75629234313965,-0.63252806663513,0.58961886167526,7.82134532928467,-6.70698547363281,10.32887649536133
495,681913402,-23.70971107482910,84.65111541748047,51.06587219238281,-9.49786567687988,-0.63814282417297,0.09033583104610,11.00993633270264,-1.99873042106628,11.19213104248047
496,681921735,-22.74950981140137,84.69622039794922,51.91785430908203,-9.43697929382324,-0.66272091865540,0.11028371751308,12.72229766845703,0.69871801137924,10.22022247314453
497,681930068,-21.75422668457031,84.72266387939453,52.80842971801758,-9.48790836334229,-0.57675361633301,0.14878907799721,12.28916168212891,-0.36569449305534,9.49019145965576
498,681938401,-20.72408485412598,84.72132873535156,53.72600173950195,-9.61207199096680,-0.42990258336067,0.27629634737968,13.30830192565918,-4.37714099884033,8.77806472778320
499,681946734,-19.68753051757812,84.70783996582031,54.64175033569336,-9.69518566131592,-0.36186710000038,0.17128722369671,14.20259666442871,-4.61706876754761,8.10087394714355
500,681955067,-18.78146362304688,84.70335388183594,55.42455673217773,-9.83980560302734,-0.44093936681747,0.23601977527142,14.41388797760010,-2.95798325538635,7.16687726974487
501,681963400,-18.03667449951172,84.70998382568359,56.05611801147461,-9.83523368835449,-0.62498325109482,0.56865304708481,13.11224842071533,-2.02992820739746,6.31912183761597
502,681971733,-17.45532417297363,84.74543762207031,56.55393218994141,-9.78297138214111,-0.73576492071152,0.80213302373886,9.59241580963135,1.76045370101929,5.95691108703613
503,681980066,-16.93171501159668,84.78112792968750,57.00979995727539,-9.89789772033691,-0.83243274688721,0.77503949403763,7.59017658233643,3.01158094406128,5.19929265975952
504,681988399,-16.35492706298828,84.79391479492188,57.53424072265625,-9.76845645904541,-0.70804572105408,0.59442174434662,5.80069017410278,0.25899836421013,5.08395290374756
505,681996732,-15.77288818359375,84.80058288574219,58.06051635742188,-9.67041587829590,-0.40439873933792,0.63008356094360,6.27122259140015,-1.46011376380920,5.19119882583618
506,682005065,-15.22230434417725,84.81182861328125,58.53945541381836,-9.68318939208984,-0.29053232073784,0.35548359155655,8.20107746124268,-0.68203043937683,4.87681055068970
507,682013398,-14.57549762725830,84.80484008789062,59.09783172607422,-9.72990131378174,-0.22772510349751,0.24720461666584,10.13666820526123,-1.95913052558899,4.81423473358154
508,682021731,-14.00859355926514,84.82055664062500,59.55620956420898,-9.75026607513428,-0.24002946913242,0.38867411017418,12.64112567901611,-0.04741195216775,4.77501869201660
509,682030064,-13.49516391754150,84.83992004394531,59.93298339843750,-9.82531261444092,-0.45991370081902,0.71055108308792,15.83417129516602,1.70182275772095,3.68042063713074
510,682038397,-13.01791000366211,84.83251953125000,60.28726577758789,-9.81521320343018,-0.54683899879456,0.70151871442795,14.17967033386230,-1.33268308639526,2.68704843521118
511,682046730,-12.65742778778076,84.81862640380859,60.56596374511719,-9.76543617248535,-0.49263843894005,0.30241966247559,9.56301212310791,-2.96300387382507,2.06318855285645
512,682055063,-12.48517799377441,84.82173156738281,60.67510604858398,-9.70647716522217,-0.42777785658836,0.33144402503967,6.41230630874634,-0.56548553705215,0.83913516998291
513,682063396,-12.37005710601807,84.80933380126953,60.73200225830078,-9.78649330139160,-0.40889030694962,0.99112647771835,6.25636625289917,-1.19641506671906,-0.54745298624039
514,682071729,-12.38217544555664,84.80073547363281,60.65699768066406,-9.87741374969482,-0.30495324730873,0.98218131065369,7.14922809600830,-1.49108159542084,-1.48437058925629
515,682080062,-12.38945293426514,84.78008270263672,60.58763122558594,-9.89774417877197,-0.20907595753670,0.98497807979584,6.67395591735840,-1.85495734214783,-2.09780597686768
516,682088395,-12.37744331359863,84.75364685058594,60.55207824707031,-9.81459045410156,-0.06976012885571,0.66899847984314,4.94238233566284,-2.60522389411926,-1.89079141616821
517,682096728,-12.45937252044678,84.74722290039062,60.43302917480469,-9.70431232452393,-0.00475737266243,0.43678420782089,3.55975103378296,-1.14490509033203,-1.86860954761505
518,682105061,-12.64551067352295,84.75178527832031,60.23202514648438,-9.66814231872559,0.07472604513168,0.28252750635147,1.09622526168823,0.38061469793320,-2.50012874603271
519,682113394,-12.80457973480225,84.73076629638672,60.06546401977539,-9.74042701721191,0.12710033357143,0.37530881166458,0.03991978615522,-1.69061625003815,-3.17355251312256
520,682121727,-13.06047630310059,84.70176696777344,59.80339431762695,-9.63884353637695,0.15139535069466,0.50054246187210,0.18597213923931,-3.40382432937622,-4.10206842422485
521,682130060,-13.45018291473389,84.69082641601562,59.38885116577148,-9.52546501159668,0.19210849702358,0.51529264450073,2.00683689117432,0.15134170651436,-5.60685348510742
522,682138393,-14.01067352294922,84.69992065429688,58.78881072998047,-9.67422485351562,0.08524906635284,0.77531921863556,3.69382858276367,3.03994870185852,-7.03752326965332
523,682146726,-14.72637271881104,84.71839904785156,58.04712677001953,-9.75981616973877,-0.09486465156078,0.77512949705124,2.50367665290833,3.49131059646606,-7.96195602416992
524,682155059,-15.51372146606445,84.75289916992188,57.25984573364258,-9.74278736114502,-0.14134356379509,0.63647747039795,-0.86652952432632,5.56698465347290,-7.85545015335083
525,682163392,-16.29877853393555,84.79598999023438,56.49422836303711,-9.72307014465332,-0.19584156572819,0.59755748510361,-3.46755313873291,7.64714288711548,-7.45814847946167
526,682171725,-17.09597396850586,84.83559417724609,55.72529220581055,-9.72817993164062,-0.20510576665401,0.51798981428146,-4.52820014953613,7.33512401580811,-7.44960641860962
527,682180058,-17.97715759277344,84.87470245361328,54.84208297729492,-9.79235839843750,-0.24883380532265,0.57192355394363,-4.21520709991455,6.59721565246582,-7.86884737014771
528,682188391,-18.78224945068359,84.90161895751953,54.05822372436523,-9.77858066558838,-0.36698681116104,0.58617430925369,-3.67920351028442,6.09443378448486,-7.76526355743408
529,682196724,-19.64414405822754,84.94371795654297,53.21416854858398,-9.81993675231934,-0.39365744590759,0.64395141601562,-3.29217243194580,7.00781250000000,-7.35205411911011
530,682205057,-20.47038078308105,84.98745727539062,52.39638137817383,-9.85087776184082,-0.40456512570381,0.73447257280350,-2.38058733940125,7.16318750381470,-6.82309484481812
531,682213390,-21.14874267578125,85.00801849365234,51.72687530517578,-9.93267440795898,-0.34053623676300,0.72061616182327,-2.11747765541077,5.17767381668091,-6.49454021453857
532,682221723,-21.81204795837402,85.02153778076172,51.06547164916992,-9.89027500152588,-0.32195761799812,0.86448168754578,-1.12354290485382,3.33524274826050,-6.38386201858521
533,682230056,-22.41568374633789,85.03391265869141,50.45737838745117,-9.79283618927002,-0.27842995524406,0.77374082803726,-0.50465166568756,4.12008857727051,-6.12697696685791
534,682238389,-23.09766197204590,85.06112670898438,49.76449584960938,-9.85264301300049,-0.30645614862442,0.84902137517929,0.24135015904903,6.16845893859863,-6.18189334869385
535,682246722,-23.81340026855469,85.08856964111328,49.03659820556641,-9.96784305572510,-0.30616876482964,0.80967724323273,0.14813995361328,5.31688880920410,-6.11340188980103
536,682255055,-24.35809135437012,85.09623718261719,48.49176406860352,-9.95649433135986,-0.25242856144905,0.63140302896500,-0.93402314186096,2.44875955581665,-5.30107116699219
537,682263388,-24.71525955200195,85.09839630126953,48.14607238769531,-9.84265708923340,-0.14697577059269,0.40114426612854,-2.29344749450684,2.07015538215637,-3.94249200820923
538,682271721,-25.13779067993164,85.11914062500000,47.74140548706055,-9.80156707763672,-0.07500663399696,0.33548650145531,-3.02350401878357,3.34077501296997,-3.28525614738464
539,682280054,-25.43612098693848,85.12813568115234,47.46535873413086,-9.87416553497314,-0.03610144555569,0.42389476299286,-3.55318093299866,2.54481267929077,-2.90693378448486
540,682288387,-25.56484603881836,85.11561584472656,47.36768341064453,-9.85264205932617,0.01214252784848,0.37760576605797,-4.54201841354370,-0.55910748243332,-2.37087917327881
541,682296720,-25.60005760192871,85.10007476806641,47.37750244140625,-9.85832023620605,-0.03818680718541,0.38302767276764,-6.09119272232056,-2.40089893341064,-1.31014239788055
542,682305053,-25.53447151184082,85.08195495605469,47.49626922607422,-9.82980346679688,-0.21658805012703,0.66338789463043,-7.21125411987305,-3.21540689468384,-0.48428842425346
543,682313386,-25.58134078979492,85.09175872802734,47.51307296752930,-9.81954669952393,-0.41275686025620,0.84978032112122,-8.37424087524414,1.35956501960754,-0.15365977585316
544,682321719,-25.83643722534180,85.13901519775391,47.32357025146484,-10.01257038116455,-0.41345903277397,1.05340385437012,-8.71393775939941,6.31948089599609,-0.10501836985350
545,682330052,-26.14620399475098,85.19478607177734,47.05226135253906,-10.25416851043701,-0.38061201572418,1.16510415077209,-6.37438488006592,6.49242734909058,-0.12143709510565
546,682338385,-26.01687812805176,85.20318603515625,47.19635009765625,-10.13987541198730,-0.52120834589005,0.66990280151367,-2.12859416007996,-0.40050414204597,1.02837288379669
547,682346718,-25.53981018066406,85.20388793945312,47.68530654907227,-9.77718544006348,-0.52951472997665,0.01283501833677,-1.96386921405792,-1.68733787536621,3.64161443710327
548,682355051,-25.29927062988281,85.25723266601562,47.96201705932617,-9.66498470306396,-0.42633369565010,0.02274489402771,-5.05122995376587,3.93897056579590,4.60898780822754
549,682363384,-24.93570709228516,85.28632354736328,48.37260818481445,-9.77950096130371,-0.13188970088959,0.53722244501114,-6.26191329956055,1.78045856952667,4.33783531188965
550,682371717,-24.27289009094238,85.26691436767578,49.07323455810547,-9.77656173706055,0.01557556446642,0.74634343385696,-4.98511886596680,-4.61737537384033,4.51288223266602
551,682380050,-23.50226402282715,85.23934936523438,49.86816024780273,-9.79720401763916,0.00095225137193,0.58070683479309,-3.42280530929565,-6.93930768966675,5.22262811660767
552,682388383,-22.54722976684570,85.19249725341797,50.83680343627930,-9.80885505676270,-0.19498001039028,0.96727967262268,-2.25425767898560,-9.66768360137939,6.05314397811890
553,682396716,-21.74742889404297,85.18122863769531,51.66541290283203,-9.82238674163818,-0.62827759981155,1.30524170398712,-3.87753391265869,-4.04733085632324,6.40285396575928
554,682405049,-21.37313461303711,85.23128509521484,52.07926559448242,-9.95879364013672,-0.71151590347290,1.51123082637787,-5.69483900070190,3.40580987930298,5.40889453887939
555,682413382,-20.96687889099121,85.25666046142578,52.51838684082031,-10.28797340393066,-0.67119586467743,0.89994007349014,-4.54562997817993,1.61112248897552,4.35999059677124
556,682421715,-20.23529243469238,85.24033355712891,53.24977493286133,-10.11213493347168,-0.63531017303467,0.20341444015503,-0.43621045351028,-4.04187488555908,5.29757452011108
557,682430048,-19.44583129882812,85.24973297119141,54.03890228271484,-9.70071506500244,-0.59636342525482,-0.17565402388573,-0.31203263998032,-2.19485831260681,7.11403417587280
558,682438381,-18.83165359497070,85.30239105224609,54.66399002075195,-9.46815681457520,-0.48410493135452,-0.04335577040911,-2.07488083839417,3.31049871444702,7.30232334136963
559,682446714,-18.25753211975098,85.34469604492188,55.24028778076172,-9.47476768493652,-0.37360373139381,0.50522869825363,-0.79332405328751,3.36682462692261,6.14699411392212
560,682455047,-17.64821243286133,85.37145233154297,55.83803176879883,-9.69045162200928,-0.19712738692760,0.70251345634460,0.74198037385941,0.59997504949570,5.90624523162842
561,682463380,-16.86757659912109,85.37356567382812,56.61820602416992,-9.95162963867188,-0.24973152577877,0.28226551413536,-0.41621854901314,-1.66173648834229,6.47266626358032
562,682471713,-15.98534202575684,85.36997222900391,57.52941894531250,-9.97658538818359,-0.35665071010590,0.18695819377899,-3.88590979576111,-2.56413865089417,7.52675580978394
563,682480046,-15.25923824310303,85.40287780761719,58.29129409790039,-9.96291351318359,-0.60275268554688,0.51192122697830,-4.26999568939209,1.12483620643616,7.44827365875244
564,682488379,-14.56394958496094,85.43443298339844,58.99765014648438,-10.02350902557373,-0.86725735664368,0.68992286920547,-1.87352752685547,1.23500311374664,6.91649627685547
565,682496712,-13.75251007080078,85.44753265380859,59.81201553344727,-10.00209808349609,-0.79501515626907,1.06497645378113,-0.79854935407639,-0.02950759790838,7.10519647598267
566,682505045,-12.77140903472900,85.44705963134766,60.79621887207031,-9.90387153625488,-0.52144342660904,0.92948627471924,-0.77803248167038,-2.87681174278259,8.56592559814453
567,682513378,-11.59455204010010,85.42610931396484,61.98789978027344,-9.74361896514893,-0.22459100186825,0.60319399833679,-2.08925080299377,-4.52268028259277,9.78132152557373
568,682521711,-10.42472457885742,85.40087890625000,63.14910888671875,-9.73654651641846,-0.14103761315346,0.13806466758251,0.71836405992508,-4.75200462341309,9.54797649383545
569,682530044,-9.36182403564453,85.39134979248047,64.14334869384766,-9.76280879974365,-0.20210744440556,0.24574297666550,3.08926939964294,-3.37621283531189,9.17408561706543
570,682538377,-8.23371601104736,85.36595153808594,65.22492218017578,-9.81914424896240,-0.36545777320862,0.44459438323975,5.25905084609985,-4.24950456619263,9.05958843231201
571,682546710,-7.17506408691406,85.34318542480469,66.18705749511719,-9.88146209716797,-0.58101111650467,0.50297284126282,7.42468309402466,-4.63174533843994,8.73843669891357
572,682555043,-6.13026666641235,85.31809234619141,67.16053009033203,-9.82379531860352,-0.51348918676376,0.23876631259918,8.17699813842773,-3.74900174140930,8.28765201568604
573,682563376,-5.11827039718628,85.28740692138672,68.08059692382812,-9.93787384033203,-0.37041625380516,0.30282205343246,6.82288885116577,-5.17603445053101,8.55594825744629
574,682571709,-4.01565551757812,85.21549987792969,69.09183502197266,-9.90339279174805,-0.35939162969589,0.59613746404648,10.60738182067871,-9.04810237884521,8.52140903472900
575,682580042,-3.06483006477356,85.15657043457031,69.90065002441406,-9.80682754516602,-0.25206324458122,0.42961120605469,13.46985054016113,-8.21953296661377,7.58077764511108
576,682588375,-2.12916278839111,85.10803985595703,70.72028350830078,-9.79522991180420,-0.30703082680702,0.76275122165680,13.48816585540771,-5.85569763183594,7.27163982391357
577,682596708,-1.27946877479553,85.09775543212891,71.42243194580078,-9.65243721008301,-0.29485043883324,0.74491643905640,13.79963684082031,-2.06361150741577,7.09011316299438
578,682605041,-0.43965399265289,85.11809539794922,72.16035461425781,-9.62354469299316,-0.31570401787758,0.40722510218620,11.76132869720459,2.66855549812317,6.78583955764771
579,682613374,0.27391883730888,85.16276550292969,72.78413391113281,-9.72470188140869,-0.33031141757965,0.27989795804024,8.00533294677734,4.69868850708008,6.20600986480713
580,682621707,0.90611231327057,85.19438171386719,73.40085601806641,-9.74188137054443,-0.34319141507149,0.24984554946423,1.32206583023071,4.19429206848145,5.38020515441895
581,682630040,1.38194668292999,85.23375701904297,73.85855102539062,-9.70828056335449,-0.30972373485565,0.44543722271919,-0.76076847314835,4.17136812210083,4.38719415664673
582,682638373,1.81329309940338,85.26898193359375,74.28192138671875,-9.77757549285889,-0.39375588297844,0.76928973197937,0.33817195892334,4.68219280242920,3.28695940971375
583,682646706,2.21348834037781,85.28532409667969,74.66480255126953,-9.94887065887451,-0.43413338065147,1.09473192691803,-0.73266947269440,1.39491283893585,3.60747027397156
584,682655039,2.71551227569580,85.28279113769531,75.15793609619141,-9.89369869232178,-0.27836072444916,0.97155648469925,0.46339985728264,0.24152939021587,4.07751655578613
585,682663372,3.19025635719299,85.29006195068359,75.55899810791016,-9.96759796142578,-0.31615698337555,0.77044254541397,5.34521675109863,0.44585415720940,3.88925194740295
586,682671705,3.80461764335632,85.26348114013672,76.09471130371094,-10.04786586761475,-0.40681016445160,0.71144413948059,8.84404468536377,-2.52354025840759,4.68283367156982
587,682680038,4.39049720764160,85.23670959472656,76.57325744628906,-9.91541481018066,-0.36604148149490,0.58054786920547,9.39984893798828,-3.47485351562500,4.96126079559326
588,682688371,5.06740665435791,85.20531463623047,77.15386962890625,-9.79019355773926,-0.21389722824097,0.87065738439560,10.95973014831543,-2.95424365997314,5.30684757232666
589,682696704,5.75449991226196,85.17310333251953,77.74633789062500,-9.81714820861816,-0.01322835125029,0.63777428865433,10.05101394653320,-3.94177484512329,6.14100074768066
590,682705037,6.50645160675049,85.10671234130859,78.44397735595703,-9.93325996398926,0.17107680439949,0.52249419689178,5.99597263336182,-6.83418512344360,7.11436605453491
591,682713370,7.32007074356079,85.04156494140625,79.19081115722656,-9.88379287719727,0.22514440119267,0.87974667549133,5.53340578079224,-7.43944978713989,8.54663848876953
592,682721703,8.30907821655273,85.00244903564453,80.08989715576172,-9.71694469451904,0.18982914090157,1.03352427482605,10.37413883209229,-3.04873490333557,9.12539196014404
593,682730036,9.32994842529297,84.98538970947266,80.98942565917969,-9.79124641418457,-0.15534472465515,1.00305509567261,14.15385246276855,-1.24385309219360,9.38809299468994
594,682738369,10.39045524597168,84.93106079101562,81.92182922363281,-9.81737232208252,-0.38752192258835,0.55369091033936,14.98974990844727,-4.40442037582397,10.01451587677002
595,682746702,11.42878913879395,84.88449859619141,82.81713867187500,-9.73066520690918,-0.50554192066193,0.44311144948006,15.75123405456543,-4.27419710159302,10.29755306243896
596,682755035,12.41718292236328,84.85076141357422,83.67257690429688,-9.70397663116455,-0.50320261716843,0.38034403324127,15.54352855682373,-1.74525213241577,9.03477001190186
597,682763368,13.29282665252686,84.82448577880859,84.41757202148438,-9.81838607788086,-0.36863237619400,0.50813877582550,14.60251235961914,-1.91725146770477,8.44185161590576
598,682771701,14.16487884521484,84.75981140136719,85.16572570800781,-9.90623569488525,-0.21834288537502,0.66679072380066,14.41949748992920,-5.28157949447632,8.97157955169678
599,682780034,14.96435546875000,84.67681884765625,85.80698394775391,-9.89335823059082,-0.04198244959116,0.70187199115753,17.55199241638184,-8.44583511352539,9.34178256988525
600,682788367,15.84244632720947,84.57422637939453,86.51339721679688,-9.86079597473145,0.15576325356960,0.82086896896362,20.15600395202637,-9.43732643127441,10.14037418365479
601,682796700,16.92004966735840,84.50446319580078,87.39275360107422,-9.67590236663818,0.42727103829384,1.05634105205536,24.44469070434570,-5.92862367630005,11.76994132995605
602,682805033,18.11212921142578,84.41632843017578,88.32367706298828,-9.70115184783936,0.59490877389908,1.37624418735504,31.03399658203125,-6.52287626266479,12.68803691864014
603,682813366,19.23556137084961,84.30253601074219,89.19983673095703,-9.77833271026611,0.62989169359207,1.17611420154572,30.49904632568359,-10.33550930023193,13.87700176239014
604,682821699,20.39189147949219,84.16494750976562,90.14168548583984,-9.74888420104980,0.78974932432175,0.39689275622368,25.48655891418457,-11.37142467498779,15.49933052062988
605,682830032,21.53602600097656,84.04095458984375,91.11640167236328,-9.68225097656250,1.00948607921600,0.27203184366226,19.75374794006348,-10.18020439147949,16.39075088500977
606,682838365,22.66326522827148,83.89299011230469,92.10099792480469,-9.89092922210693,1.14902746677399,0.54256027936935,16.96318054199219,-11.46494007110596,17.40502548217773
607,682846698,23.67960739135742,83.72121429443359,92.98693847656250,-9.92278480529785,1.25788784027100,0.62698131799698,15.75052356719971,-15.09168529510498,18.35605621337891
608,682855031,24.70259857177734,83.53246307373047,93.84643554687500,-9.73110771179199,1.03468680381775,0.65933382511139,19.43836593627930,-15.65763664245605,18.94585609436035
609,682863364,25.76996994018555,83.36570739746094,94.70303344726562,-9.56255912780762,0.75834023952484,0.87112605571747,25.33146667480469,-13.77263450622559,18.79429626464844
610,682871697,26.79570007324219,83.19041442871094,95.49210357666016,-9.61561203002930,0.57446879148483,0.92508256435394,28.22480392456055,-13.65486145019531,18.48121643066406
611,682880030,27.77901077270508,83.01860046386719,96.25514221191406,-9.58980178833008,0.60259729623795,0.99735504388809,27.16375923156738,-14.01000308990479,18.74945068359375
612,682888363,28.75459861755371,82.83549499511719,96.98291778564453,-9.61831188201904,0.75608325004578,1.11418819427490,29.58961296081543,-13.94712162017822,19.09803390502930
613,682896696,29.61717224121094,82.63359069824219,97.58158111572266,-9.75677680969238,0.95852720737457,0.83016407489777,32.85828399658203,-17.49319267272949,19.19173812866211
614,682905029,30.41548156738281,82.41142272949219,98.07866668701172,-9.74567890167236,1.19901180267334,0.61496841907501,35.83339309692383,-18.90697479248047,19.28933143615723
615,682913362,31.22667312622070,82.20620727539062,98.59397888183594,-9.58526992797852,1.27843546867371,0.65550696849823,37.02663421630859,-17.69851875305176,19.08843994140625
616,682921695,32.12177276611328,82.01342773437500,99.18989562988281,-9.45660305023193,1.28375411033630,0.66356003284454,35.76599502563477,-14.23482704162598,19.72659301757812
617,682930028,33.07266998291016,81.85705566406250,99.90098571777344,-9.49776458740234,1.26847791671753,0.55437731742859,30.65627670288086,-10.20186805725098,19.51123046875000
618,682938361,33.91370773315430,81.68572998046875,100.53159332275391,-9.59878730773926,1.20485603809357,0.58200800418854,25.22155380249023,-10.86958980560303,19.60386085510254
619,682946694,34.67851257324219,81.51615142822266,101.15687561035156,-9.61917972564697,1.29095387458801,0.15156669914722,18.83637809753418,-11.54465198516846,19.75300979614258
620,682955027,35.33074188232422,81.33759307861328,101.68325042724609,-9.70619392395020,1.15393376350403,0.64604830741882,15.00520038604736,-11.85214996337891,19.22845268249512
621,682963360,35.98606109619141,81.18299102783203,102.23513793945312,-9.68009376525879,0.82431274652481,0.94899499416351,14.37524127960205,-10.15773963928223,18.19660377502441
622,682971693,36.53948593139648,81.03224182128906,102.68838500976562,-9.81154537200928,0.63624554872513,1.19350564479828,11.87697887420654,-9.31969165802002,16.70201110839844
623,682980026,36.99610900878906,80.88074493408203,103.06343078613281,-9.85027599334717,0.48858955502510,1.04838109016418,12.04561138153076,-11.37604141235352,15.66623592376709
624,682988359,37.38391494750977,80.74195098876953,103.33743286132812,-9.81879901885986,0.50364130735397,1.07193613052368,13.28069210052490,-9.80369853973389,13.47525787353516
625,682996692,37.78451919555664,80.62172698974609,103.61818695068359,-9.85996532440186,0.67690455913544,1.23853480815887,16.55944442749023,-9.15427494049072,12.24459552764893
626,683005025,38.18320465087891,80.50412750244141,103.84983062744141,-9.92179203033447,0.66773653030396,1.02749907970428,19.63184738159180,-8.02655792236328,11.49686527252197
627,683013358,38.53691864013672,80.40368652343750,104.06510162353516,-9.90235233306885,0.61264705657959,0.63696008920670,18.90660476684570,-7.87376689910889,9.95329856872559
628,683021691,38.83911132812500,80.31450653076172,104.21269989013672,-9.88181972503662,0.58403384685516,1.01392054557800,18.01817321777344,-6.20894384384155,8.22367095947266
629,683030024,39.10233688354492,80.24631500244141,104.34411621093750,-9.82409000396729,0.71649199724197,0.96637785434723,17.99665641784668,-5.80738973617554,6.35905647277832
630,683038357,39.42950439453125,80.19702911376953,104.51215362548828,-9.75514507293701,0.97148913145065,1.01549243927002,18.61030006408691,-2.12288308143616,5.61427116394043
631,683046690,39.77104949951172,80.16758728027344,104.74240112304688,-9.73500728607178,1.15013253688812,1.03629851341248,15.82503128051758,-0.86555647850037,5.02898502349854
632,683055023,40.00705718994141,80.12474822998047,104.86029815673828,-9.82054138183594,1.14372825622559,1.07688033580780,13.60762691497803,-2.10956287384033,4.37907361984253
633,683063356,40.17670059204102,80.07881164550781,104.94060516357422,-9.94079971313477,0.87622040510178,1.18885791301727,12.93351364135742,-4.30972385406494,3.96630072593689
634,683071689,40.27038574218750,80.02342987060547,104.92317962646484,-9.92911815643311,0.62496584653854,0.92369174957275,12.53306007385254,-5.02430963516235,3.23245310783386
635,683080022,40.35626983642578,79.98745727539062,104.93855285644531,-9.92198181152344,0.62261855602264,1.03459191322327,10.78880596160889,-4.26459074020386,2.13626575469971
636,683088355,40.37271499633789,79.93985748291016,104.86676788330078,-9.88962459564209,0.55021739006042,0.87856537103653,9.69264507293701,-5.04464721679688,1.77433669567108
637,683096688,40.43922424316406,79.90400695800781,104.86318206787109,-9.87609004974365,0.22009341418743,0.93154776096344,10.71634387969971,-4.53374576568604,1.86841773986816
638,683105021,40.42414474487305,79.84553527832031,104.74196624755859,-9.77556800842285,0.21859882771969,0.81228566169739,11.74882888793945,-6.72330284118652,1.82415652275085
639,683113354,40.41291046142578,79.78781890869141,104.62443542480469,-9.72434043884277,0.30952367186546,1.38932025432587,14.84774017333984,-8.10918617248535,1.77264606952667
640,683121687,40.36409378051758,79.70061492919922,104.37688446044922,-9.79140567779541,0.22524480521679,1.46704709529877,22.62377357482910,-11.12362861633301,1.97095251083374
641,683130020,40.29439926147461,79.61630249023438,104.09968566894531,-9.81363296508789,0.27629879117012,1.01769399642944,26.79121398925781,-12.82262325286865,1.20951783657074
642,683138353,40.24395370483398,79.54108428955078,103.81455993652344,-9.78405189514160,0.46798706054688,0.72451925277710,26.85927581787109,-10.61206245422363,0.32313662767410
643,683146686,40.30620956420898,79.50794982910156,103.67620086669922,-9.91284370422363,0.71929425001144,0.58575826883316,26.34875106811523,-6.22725963592529,-0.49266448616982
644,683155019,40.40691757202148,79.48775482177734,103.57093811035156,-9.87902259826660,1.02547430992126,0.56586241722107,23.76485633850098,-3.07542538642883,-0.96235275268555
645,683163352,40.64454269409180,79.50251770019531,103.63196563720703,-9.87465000152588,1.13402664661407,0.76914024353027,23.87994384765625,0.92819625139236,-0.85257017612457
646,683171685,40.86828231811523,79.50483703613281,103.64304351806641,-9.93128490447998,1.12066960334778,0.72673606872559,24.81312561035156,0.64162415266037,-0.78856027126312
647,683180018,41.16340637207031,79.53149414062500,103.73876953125000,-9.84637928009033,0.97035837173462,0.94226282835007,26.61137580871582,2.46766424179077,-1.20950484275818
648,683188351,41.40697860717773,79.54345703125000,103.73193359375000,-9.91360664367676,0.76997601985931,1.02539670467377,29.31462860107422,1.24432766437531,-1.84230518341064
649,683196684,41.55858612060547,79.55194854736328,103.64513397216797,-9.82165622711182,0.66924422979355,0.85198009014130,31.01878166198730,-1.83079171180725,-2.78717660903931
650,683205017,41.61684036254883,79.53968048095703,103.40792083740234,-9.86310577392578,0.55515342950821,1.02806329727173,34.26903152465820,-4.27189588546753,-3.66798830032349
651,683213350,41.64662170410156,79.52338409423828,103.12197113037109,-9.86709022521973,0.65422546863556,1.43948101997375,39.91262817382812,-6.95076513290405,-4.03196763992310
652,683221683,41.63840103149414,79.48069763183594,102.73654174804688,-9.88986206054688,0.90003436803818,1.06517159938812,43.78393554687500,-9.16921997070312,-3.67990112304688
653,683230016,41.69162368774414,79.45131683349609,102.43040466308594,-9.80200481414795,0.86907267570496,0.93395978212357,45.03427124023438,-8.43865013122559,-3.27342820167542
654,683238349,41.81126403808594,79.43025970458984,102.18762207031250,-9.81949138641357,0.97250384092331,1.05868542194366,42.29273986816406,-5.18732595443726,-3.08111548423767
655,683246682,41.91448211669922,79.41944885253906,101.96818542480469,-9.73611831665039,1.40991806983948,1.20838260650635,40.84694290161133,-5.53114604949951,-3.33023953437805
656,683255015,41.89053344726562,79.37783050537109,101.61515808105469,-9.71914958953857,1.58147692680359,0.71587181091309,38.07131958007812,-8.67009639739990,-3.24873423576355
657,683263348,41.91383743286133,79.35842895507812,101.35563659667969,-9.69151401519775,1.64125645160675,0.30635976791382,35.98787307739258,-6.90593862533569,-3.31901955604553
658,683271681,41.92321777343750,79.32539367675781,101.07360839843750,-9.76811981201172,1.46417796611786,0.23302482068539,33.69505691528320,-6.87804269790649,-2.79956197738647
659,683280014,41.89955520629883,79.29909515380859,100.82155609130859,-9.82271575927734,1.17722702026367,0.34776914119720,29.29966735839844,-7.45687294006348,-2.65156173706055
660,683288347,41.82518386840820,79.24784851074219,100.50185394287109,-9.91968250274658,0.91674673557281,0.79304778575897,28.08497047424316,-9.10184574127197,-1.99417233467102
661,683296680,41.66320419311523,79.17425537109375,100.10220336914062,-9.88081359863281,0.72118347883224,0.81756758689880,29.99871444702148,-13.95639133453369,-1.41475236415863
662,683305013,41.54569244384766,79.08232879638672,99.68745422363281,-9.75238227844238,0.55318886041641,1.13626909255981,34.09939193725586,-14.23374652862549,-0.48528787493706
663,683313346,41.55287170410156,79.00981140136719,99.37917327880859,-9.73066616058350,0.51815831661224,1.09092819690704,39.42291641235352,-12.57389259338379,-0.04651551693678
664,683321679,41.45288467407227,78.91525268554688,98.92712402343750,-9.80616378784180,0.69752949476242,0.98912245035172,40.57868576049805,-15.13593673706055,-1.05138921737671
665,683330012,41.42534255981445,78.85203552246094,98.53472900390625,-9.57654285430908,1.22920465469360,1.14195752143860,45.04001617431641,-13.07916641235352,-2.27816009521484
666,683338345,41.51984024047852,78.79774475097656,98.21233367919922,-9.56096553802490,1.65984213352203,0.73623263835907,48.63083648681641,-9.60722827911377,-2.09225201606750
667,683346678,41.70262527465820,78.76374816894531,97.98998260498047,-9.71751117706299,1.99910175800323,0.33175781369209,50.11986160278320,-7.86258935928345,-1.62094926834106
668,683355011,41.82036590576172,78.69784545898438,97.70390319824219,-9.73226547241211,2.11775207519531,0.35196578502655,47.14136886596680,-10.12824726104736,-0.52960103750229
669,683363344,41.85462188720703,78.62826538085938,97.40413665771484,-9.72275447845459,1.81540298461914,0.27098768949509,41.21507263183594,-12.31431865692139,-0.15102176368237
670,683371677,41.83843994140625,78.54836273193359,97.08812713623047,-9.52955722808838,1.76974475383759,0.37350755929947,34.57571411132812,-11.91795921325684,0.02257897518575
671,683380010,41.85043716430664,78.48561859130859,96.85341644287109,-9.53049850463867,1.68709456920624,0.58578407764435,30.66227722167969,-10.74080085754395,0.37162446975708
672,683388343,41.77860641479492,78.39108276367188,96.53618621826172,-9.56842422485352,1.73168265819550,1.27975606918335,28.02892303466797,-13.30806541442871,1.08564746379852
673,683396676,41.71342849731445,78.29824066162109,96.21732330322266,-9.50736427307129,1.95991194248199,1.18285596370697,31.34119033813477,-14.91008758544922,1.13651764392853
674,683405009,41.65874481201172,78.19954681396484,95.83924102783203,-9.58319854736328,2.17897510528564,0.70063799619675,37.15945816040039,-16.02262115478516,0.83063238859177
675,683413342,41.57843780517578,78.06823730468750,95.39401245117188,-9.66484642028809,2.12414813041687,0.45707741379738,42.01189422607422,-18.85989761352539,1.46514976024628
676,683421675,41.45081710815430,77.89673614501953,94.91707611083984,-10.10953807830811,1.76558256149292,0.19457237422466,40.02455902099609,-23.08328628540039,3.92996120452881
677,683430008,41.35306549072266,77.72928619384766,94.51801300048828,-10.33930492401123,1.67938876152039,0.02420113980770,34.37567520141602,-22.83013153076172,5.52708625793457
678,683438341,41.28530120849609,77.59941864013672,94.20497131347656,-10.14355468750000,1.39093565940857,0.42200085520744,27.84799194335938,-18.14514160156250,4.05828523635864
679,683446674,41.16705322265625,77.49925994873047,93.90064239501953,-9.67695999145508,1.22002577781677,0.65087181329727,20.83110809326172,-14.01926612854004,1.21686899662018
680,683455007,41.02393341064453,77.42949676513672,93.59853363037109,-9.43037414550781,1.39906775951385,0.87880212068558,17.49246597290039,-12.66347694396973,-0.63228762149811
681,683463340,40.84263610839844,77.34996795654297,93.25288391113281,-9.61778926849365,1.48578965663910,1.22999417781830,18.08003234863281,-12.93893241882324,-1.37064373493195
682,683471673,40.71673965454102,77.28001403808594,92.93797302246094,-9.80299949645996,1.37873399257660,1.22723245620728,21.12253189086914,-11.56238555908203,-1.58591890335083
683,683480006,40.62552261352539,77.22512817382812,92.62921905517578,-9.88595199584961,1.15874576568604,0.94665133953094,24.46876907348633,-11.52874374389648,-2.10579872131348
684,683488339,40.58161926269531,77.17877197265625,92.33152008056641,-9.89326763153076,0.90814048051834,0.85841947793961,28.84609603881836,-10.58765125274658,-2.57979083061218
685,683496672,40.60730743408203,77.14885711669922,92.08689117431641,-9.93599033355713,0.83919799327850,1.30247926712036,31.06708908081055,-6.76572465896606,-3.40426301956177
686,683505005,40.55105209350586,77.10913085937500,91.74755859375000,-10.00905609130859,0.75558596849442,1.63649642467499,32.23043823242188,-10.75343036651611,-3.93860220909119
687,683513338,40.35802078247070,77.02676391601562,91.26847076416016,-9.82854652404785,0.87231040000916,1.34446156024933,32.22659683227539,-15.67324066162109,-4.15783548355103
688,683521671,40.15616607666016,76.94157409667969,90.76999664306641,-9.77448844909668,1.12392306327820,1.21850812435150,33.41802215576172,-16.30209732055664,-4.46169757843018
