sep=,
DeviceTag:,ydb
FirmwareVersion:,1.6.0
AppVersion:,2021.0
StartTime: ,2021-08-30_17:05:05_000 GMT+8
© Xsens Technologies B. V. 2005-2021

PacketCounter,SampleTimeFine,Euler_X,Euler_Y,Euler_Z,Acc_X,Acc_Y,Acc_Z,Gyr_X,Gyr_Y,Gyr_Z
0,677854107,-178.58291625976562,-0.33292537927628,-177.48234558105469,0.00000000000000,0.00000000000000,0.00000000000000,0.00000000000000,0.00000000000000,0.00000000000000
1,677862440,-178.58546447753906,-0.32573312520981,-177.48121643066406,0.06338134407997,-0.25707316398621,-9.66711711883545,0.17503486573696,-0.19623064994812,-0.33721140027046
2,677870773,-178.60554504394531,-0.27230265736580,-177.49581909179688,0.05790217220783,-0.25246647000313,-9.65613746643066,0.09214720875025,-0.24897037446499,-0.39138552546501
3,677879106,-178.60939025878906,-0.26481360197067,-177.49345397949219,0.05110704153776,-0.26733723282814,-9.64779758453369,0.02032489143312,-0.23575340211391,-0.48495426774025
4,677887439,-178.59802246093750,-0.27288284897804,-177.48789978027344,0.06236574426293,-0.24859717488289,-9.65150260925293,0.09199352562428,-0.11608371138573,-0.46169656515121
5,677895772,-178.60101318359375,-0.26595398783684,-177.48562622070312,0.05450451001525,-0.23523536324501,-9.64889907836914,0.12367833405733,-0.16795252263546,-0.47616863250732
6,677904105,-178.58705139160156,-0.27088811993599,-177.49014282226562,0.04710867255926,-0.23087969422340,-9.66010761260986,0.04409490898252,-0.20353071391582,-0.47122511267662
7,677912438,-178.59008789062500,-0.26393744349480,-177.48866271972656,0.04840328916907,-0.24046427011490,-9.63834857940674,0.11432915180922,-0.16982237994671,-0.38183143734932
8,677920771,-178.58665466308594,-0.26218050718307,-177.48106384277344,0.04516997188330,-0.26132872700691,-9.67647361755371,0.11819686740637,-0.21626096963882,-0.36869129538536
9,677929104,-178.58998107910156,-0.25518697500229,-177.47885131835938,0.07243683934212,-0.23927690088749,-9.67258167266846,0.08170940726995,-0.17536786198616,-0.46647363901138
10,677937437,-178.58702087402344,-0.25034189224243,-177.47616577148438,0.06070626899600,-0.25887602567673,-9.64438629150391,0.07946816831827,-0.27532744407654,-0.43006300926208
11,677945770,-178.58927917480469,-0.24280604720116,-177.47450256347656,0.04002753272653,-0.24676614999771,-9.65575122833252,0.20856392383575,-0.23903204500675,-0.40004312992096
12,677954103,-178.58612060546875,-0.24164643883705,-177.48237609863281,0.03816733136773,-0.24748089909554,-9.67615890502930,0.20337702333927,-0.28935119509697,-0.43235546350479
13,677962436,-178.59005737304688,-0.23526002466679,-177.48057556152344,0.05175082013011,-0.25342524051666,-9.66853332519531,0.00712075736374,-0.10200869292021,-0.41852375864983
14,677970769,-178.58842468261719,-0.23087754845619,-177.48396301269531,0.04712994769216,-0.24690154194832,-9.65766143798828,0.11722355335951,-0.25642412900925,-0.42955076694489
15,677979102,-178.59056091308594,-0.22349733114243,-177.48123168945312,0.04361088201404,-0.25776699185371,-9.65933513641357,0.22700613737106,-0.22479051351547,-0.52839595079422
16,677987435,-178.58767700195312,-0.21914857625961,-177.47380065917969,0.04353935644031,-0.24415513873100,-9.65864086151123,0.24669069051743,-0.26801458001137,-0.39237165451050
17,677995768,-178.58985900878906,-0.21229967474937,-177.47218322753906,0.04743765294552,-0.22929152846336,-9.67585849761963,0.22053855657578,-0.15771964192390,-0.39590635895729
18,678004101,-178.58714294433594,-0.20745159685612,-177.46640014648438,0.06220827624202,-0.25974833965302,-9.66979217529297,0.27236893773079,-0.24873982369900,-0.42873105406761
19,678012434,-178.58984375000000,-0.20037917792797,-177.46466064453125,0.06120687723160,-0.25700879096985,-9.65436363220215,0.15523506700993,-0.18219403922558,-0.41016072034836
20,678020767,-178.58862304687500,-0.19703179597855,-177.45915222167969,0.04303901270032,-0.24629409611225,-9.67014312744141,0.18955813348293,-0.15335242450237,-0.35104307532310
21,678029100,-178.59233093261719,-0.19014951586723,-177.45697021484375,0.04739470034838,-0.25601437687874,-9.66042900085449,0.03664115816355,-0.16308583319187,-0.46525695919991
22,678037433,-178.59191894531250,-0.18712526559830,-177.45631408691406,0.06299523264170,-0.26544928550720,-9.67047214508057,0.11945197731256,-0.14197969436646,-0.48382729291916
23,678045766,-178.59526062011719,-0.18013179302216,-177.45384216308594,0.05200106650591,-0.24704468250275,-9.67250347137451,0.08051835000515,-0.17586733400822,-0.49594283103943
24,678054099,-178.59452819824219,-0.17821314930916,-177.45162963867188,0.04442630708218,-0.26279544830322,-9.65075206756592,0.09798724949360,-0.06792894750834,-0.49996423721313
25,678062432,-178.59797668457031,-0.17064833641052,-177.44960021972656,0.04102870821953,-0.22686672210693,-9.63859939575195,0.06538034230471,-0.24292542040348,-0.44243472814560
26,678070765,-178.59686279296875,-0.16768829524517,-177.44767761230469,0.06306661665440,-0.24369736015797,-9.65817642211914,0.14757639169693,-0.17458659410477,-0.38311210274696
27,678079098,-178.59953308105469,-0.16004118323326,-177.44528198242188,0.05808823928237,-0.23585784435272,-9.65847682952881,0.16133125126362,-0.25506654381752,-0.48787426948547
28,678087431,-178.59945678710938,-0.15691640973091,-177.44467163085938,0.05327437445521,-0.24650841951370,-9.66547203063965,0.14019951224327,-0.20043137669563,-0.48971852660179
29,678095764,-178.60215759277344,-0.14966090023518,-177.44291687011719,0.05646454170346,-0.25072860717773,-9.63820552825928,0.15747633576393,-0.20577198266983,-0.41096761822701
30,678104097,-178.60212707519531,-0.14674268662930,-177.43298339843750,0.06314512342215,-0.25067117810249,-9.65122413635254,0.17038591206074,-0.20702706277370,-0.39728960394859
31,678112430,-178.60557556152344,-0.13876746594906,-177.43037414550781,0.05562050640583,-0.24195206165314,-9.65464305877686,0.06732701510191,-0.29571631550789,-0.51187479496002
32,678120763,-178.60664367675781,-0.13653555512428,-177.42814636230469,0.05996943637729,-0.24457715451717,-9.66349124908447,0.05080583319068,-0.15673348307610,-0.51850897073746
33,678129096,-178.61001586914062,-0.12943594157696,-177.42619323730469,0.04552775621414,-0.24849669635296,-9.66396999359131,0.07818745821714,-0.18785479664803,-0.43595430254936
34,678137429,-178.61021423339844,-0.12740081548691,-177.42218017578125,0.05395364016294,-0.24646531045437,-9.66598701477051,0.18213002383709,-0.15573453903198,-0.52155703306198
35,678145762,-178.61367797851562,-0.12022612243891,-177.42047119140625,0.05504099652171,-0.24476988613605,-9.65674591064453,0.06266522407532,-0.19556467235088,-0.40611368417740
36,678154095,-178.61552429199219,-0.11758948862553,-177.43058776855469,0.04581395909190,-0.25426927208900,-9.64371299743652,0.01361396536231,-0.20258295536041,-0.43152299523354
37,678162428,-178.61924743652344,-0.11023646593094,-177.42915344238281,0.04672952368855,-0.23841856420040,-9.67338275909424,0.03295271471143,-0.21564625203609,-0.37268713116646
38,678170761,-178.62074279785156,-0.10723657160997,-177.42147827148438,0.04873231798410,-0.23306822776794,-9.66611576080322,0.02923864871264,-0.24689556658268,-0.37729763984680
39,678179094,-178.62422180175781,-0.09991329908371,-177.41949462890625,0.05557036772370,-0.22989927232265,-9.66016483306885,0.06400997191668,-0.21491622924805,-0.43957868218422
40,678187427,-178.62510681152344,-0.09754927456379,-177.41775512695312,0.07119910418987,-0.23678740859032,-9.65876293182373,0.14237672090530,-0.15401840209961,-0.39858308434486
41,678195760,-178.62803649902344,-0.09065356105566,-177.41629028320312,0.05014858022332,-0.23829695582390,-9.66503620147705,0.12872435152531,-0.16241987049580,-0.37711837887764
42,678204093,-178.62957763671875,-0.08784217387438,-177.41168212890625,0.05320999771357,-0.24763858318329,-9.66064357757568,0.09609179198742,-0.23834043741226,-0.41510424017906
43,678212426,-178.63209533691406,-0.08036403357983,-177.41047668457031,0.05614266544580,-0.22899112105370,-9.65668869018555,0.17854401469231,-0.23106600344181,-0.34374302625656
44,678220759,-178.63352966308594,-0.07852461934090,-177.41448974609375,0.04602854326367,-0.25213056802750,-9.67811870574951,0.11438037455082,-0.12025884538889,-0.41612893342972
45,678229092,-178.63726806640625,-0.07112492620945,-177.41307067871094,0.06100659817457,-0.25960528850555,-9.65578746795654,0.03027602098882,-0.22169120609760,-0.37243095040321
46,678237425,-178.63858032226562,-0.06817828118801,-177.41654968261719,0.05860324203968,-0.22867639362812,-9.65365600585938,0.13999460637569,-0.24925212562084,-0.48992344737053
47,678245758,-178.64186096191406,-0.06040549278259,-177.41500854492188,0.03469128906727,-0.24647980928421,-9.65065860748291,0.08616628497839,-0.26763030886650,-0.38581442832947
48,678254091,-178.64270019531250,-0.05816705152392,-177.41107177734375,0.07007640600204,-0.24453423917294,-9.65934944152832,0.19110779464245,-0.18013212084770,-0.45807212591171
49,678262424,-178.64707946777344,-0.05161635950208,-177.40884399414062,0.06675748527050,-0.24193060398102,-9.66787528991699,-0.04637457057834,-0.12321728467941,-0.47218561172485
50,678270757,-178.64843750000000,-0.04833739250898,-177.39971923828125,0.03077153116465,-0.24873295426369,-9.67452049255371,0.12180849909782,-0.30542412400246,-0.47988274693489
51,678279090,-178.65156555175781,-0.04199708253145,-177.39781188964844,0.03921903669834,-0.23610819876194,-9.66281890869141,0.10346870124340,-0.09743655472994,-0.43528833985329
52,678287423,-178.65286254882812,-0.03946778550744,-177.39163208007812,0.07285885512829,-0.23733133077621,-9.63530826568604,0.12958240509033,-0.20409421622753,-0.33552086353302
53,678295756,-178.65513610839844,-0.03326941654086,-177.39082336425781,0.06154272332788,-0.24984154105186,-9.65587997436523,0.20514440536499,-0.07708604633808,-0.30246567726135
54,678304089,-178.65696716308594,-0.03155395388603,-177.39030456542969,0.05800240486860,-0.25384008884430,-9.67788219451904,0.07392267882824,-0.11699301749468,-0.48681133985519
55,678312422,-178.65937805175781,-0.02402961812913,-177.38859558105469,0.05042038857937,-0.24970574676991,-9.65883445739746,0.18937885761261,-0.23841728270054,-0.40429505705833
56,678320755,-178.66015625000000,-0.02145930379629,-177.37911987304688,0.06690077483654,-0.25693753361702,-9.65389156341553,0.18440969288349,-0.23170638084412,-0.48841226100922
57,678329088,-178.66363525390625,-0.01434084959328,-177.37710571289062,0.05792379379272,-0.27406144142151,-9.66583728790283,0.06149977818131,-0.19124867022038,-0.44208887219429
58,678337421,-178.66543579101562,-0.01269780471921,-177.37351989746094,0.07240107655525,-0.26006305217743,-9.65740394592285,0.04682281613350,-0.12590676546097,-0.35745945572853
59,678345754,-178.66937255859375,-0.00497661810368,-177.37155151367188,0.04291705414653,-0.25517737865448,-9.65181732177734,0.00569916702807,-0.26336556673050,-0.43405881524086
60,678354087,-178.67034912109375,-0.00328720547259,-177.34899902343750,0.04796696454287,-0.24610070884228,-9.66211795806885,0.11852987855673,-0.15063731372356,-0.48828414082527
61,678362420,-178.67387390136719,0.00415498996153,-177.34637451171875,0.04034911468625,-0.25348931550980,-9.67010021209717,0.05679956823587,-0.23252603411674,-0.51579385995865
62,678370753,-178.67555236816406,0.00664319936186,-177.33750915527344,0.05208700150251,-0.23776765167713,-9.65148830413818,0.02511475607753,-0.23224425315857,-0.29095208644867
63,678379086,-178.67866516113281,0.01336334832013,-177.33570861816406,0.06064872816205,-0.23867578804493,-9.67070770263672,0.10408345609903,-0.14282499253750,-0.41197940707207
64,678387419,-178.67973327636719,0.01542954798788,-177.32827758789062,0.05180804058909,-0.24646550416946,-9.65952777862549,0.10267466306686,-0.17842876911163,-0.40122136473656
65,678395752,-178.68296813964844,0.02265446819365,-177.32653808593750,0.05132880061865,-0.23259614408016,-9.66062927246094,0.08977789431810,-0.20326176285744,-0.40415421128273
66,678404085,-178.68447875976562,0.02450911886990,-177.33061218261719,0.03735203295946,-0.24883274734020,-9.66185951232910,0.04814195260406,-0.15775807201862,-0.45767512917519
67,678412418,-178.68699645996094,0.03221493586898,-177.32882690429688,0.05496979132295,-0.25240984559059,-9.65887832641602,0.17777559161186,-0.26141887903214,-0.40585753321648
68,678420751,-178.68765258789062,0.03433886170387,-177.32096862792969,0.04905439168215,-0.23964905738831,-9.64739704132080,0.15636210143566,-0.18457615375519,-0.47222402691841
69,678429084,-178.69102478027344,0.04203367978334,-177.31913757324219,0.05486945807934,-0.23939134180546,-9.66396999359131,0.07306460291147,-0.26062482595444,-0.41366988420486
70,678437417,-178.69262695312500,0.04486843943596,-177.32594299316406,0.04247352853417,-0.26184377074242,-9.65647411346436,0.04145663976669,-0.27384176850319,-0.53835994005203
71,678445750,-178.69583129882812,0.05174162983894,-177.32406616210938,0.04545631632209,-0.24275317788124,-9.64499378204346,0.09117386490107,-0.16285529732704,-0.42135417461395
72,678454083,-178.69697570800781,0.05489235371351,-177.32220458984375,0.05424000695348,-0.25813180208206,-9.67065048217773,0.09148123115301,-0.31064945459366,-0.52691048383713
73,678462416,-178.69940185546875,0.06301338970661,-177.31959533691406,0.06154281273484,-0.25253787636757,-9.65148830413818,0.18597213923931,-0.31405612826347,-0.50608599185944
74,678470749,-178.70112609863281,0.06557665765285,-177.30966186523438,0.04147935286164,-0.26250249147415,-9.65469264984131,0.01503555756062,-0.24229787290096,-0.52408003807068
75,678479082,-178.70401000976562,0.07357594370842,-177.30868530273438,0.05232997238636,-0.26127141714096,-9.65361309051514,0.13192611932755,-0.29556268453598,-0.31239122152328
76,678487415,-178.70585632324219,0.07604818791151,-177.30464172363281,0.03881134092808,-0.25276690721512,-9.67070102691650,-0.01142394822091,-0.23324322700500,-0.41612884402275
77,678495748,-178.70906066894531,0.08359859138727,-177.30223083496094,0.05667197331786,-0.24311797320843,-9.68035697937012,0.09327422827482,-0.24584540724754,-0.48252096772194
78,678504081,-178.70948791503906,0.08559067547321,-177.30407714843750,0.05572064593434,-0.24235261976719,-9.66883373260498,0.14890836179256,-0.17299856245518,-0.43062654137611
79,678512414,-178.71220397949219,0.09254871308804,-177.30174255371094,0.06190785393119,-0.23879051208496,-9.65888404846191,0.15184117853642,-0.17611066997051,-0.47582283616066
80,678520747,-178.71269226074219,0.09406934678555,-177.30635070800781,0.04511297866702,-0.24384756386280,-9.65880584716797,0.14229987561703,-0.12366552650928,-0.35465466976166
81,678529080,-178.71643066406250,0.10137307643890,-177.30368041992188,0.04545631632209,-0.23277497291565,-9.66780376434326,0.03028883412480,-0.21800276637077,-0.51615256071091
82,678537413,-178.71696472167969,0.10386521369219,-177.31039428710938,0.06246577575803,-0.22955618798733,-9.65490722656250,0.13950790464878,-0.24743349850178,-0.44422766566277
83,678545746,-178.71958923339844,0.11049780249596,-177.30857849121094,0.03542087972164,-0.23462755978107,-9.66178131103516,0.16099826991558,-0.13560174405575,-0.41812676191330
84,678554079,-178.72108459472656,0.11373041570187,-177.30218505859375,0.04809571430087,-0.25349676609039,-9.68289661407471,0.03551413491368,-0.34412720799446,-0.47947278618813
85,678562412,-178.72398376464844,0.12211476266384,-177.30046081542969,0.03885424137115,-0.24681599438190,-9.66527175903320,0.13041487336159,-0.34556162357330,-0.40373155474663
86,678570745,-178.72402954101562,0.12414922565222,-177.28627014160156,0.05205864086747,-0.24664454162121,-9.66108036041260,0.20805162191391,-0.19738328456879,-0.45472949743271
87,678579078,-178.72741699218750,0.13135606050491,-177.28392028808594,0.06232987344265,-0.23823973536491,-9.67457103729248,0.07060564309359,-0.20778270065784,-0.48090726137161
88,678587411,-178.72808837890625,0.13371585309505,-177.26811218261719,0.05763045698404,-0.23952725529671,-9.65842628479004,0.13369350135326,-0.23744395375252,-0.45560035109520
89,678595744,-178.73120117187500,0.14048928022385,-177.26652526855469,0.05045615509152,-0.24668009579182,-9.65708923339844,0.10423713177443,-0.15255838632584,-0.38536617159843
90,678604077,-178.73258972167969,0.14252692461014,-177.26489257812500,0.06411093473434,-0.25053548812866,-9.65313339233398,0.04660510271788,-0.20962688326836,-0.40014559030533
91,678612410,-178.73614501953125,0.14962576329708,-177.26254272460938,0.05586370453238,-0.22980654239655,-9.66333389282227,0.04783457890153,-0.19413027167320,-0.47345346212387
92,678620743,-178.73645019531250,0.15138895809650,-177.26284790039062,0.05552751943469,-0.22647331655025,-9.63859176635742,0.17324186861515,-0.18762424588203,-0.45788004994392
93,678629076,-178.73907470703125,0.15897893905640,-177.26116943359375,0.06246577575803,-0.23389081656933,-9.67660903930664,0.16156178712845,-0.25109633803368,-0.39207708835602
94,678637409,-178.74011230468750,0.16204789280891,-177.25736999511719,0.03245949745178,-0.23906910419464,-9.67140197753906,0.09273633360863,-0.34955745935440,-0.40216910839081
95,678645742,-178.74258422851562,0.16934569180012,-177.25489807128906,0.04398306459188,-0.24840417504311,-9.67295360565186,0.17872335016727,-0.21989819407463,-0.48823297023773
96,678654075,-178.74366760253906,0.17090529203415,-177.24786376953125,0.04219444468617,-0.23610073328018,-9.63794803619385,0.09025175124407,-0.17148730158806,-0.37186744809151
97,678662408,-178.74613952636719,0.17805615067482,-177.24559020996094,0.06048443913460,-0.24832524359226,-9.64125251770020,0.17685347795486,-0.20148156583309,-0.46372011303902
98,678670741,-178.74673461914062,0.17939451336861,-177.23393249511719,0.04354634135962,-0.24349690973759,-9.64252567291260,0.14986889064312,-0.14693605899811,-0.41988137364388
99,678679074,-178.74926757812500,0.18687939643860,-177.23179626464844,0.04861787334085,-0.25298175215721,-9.66128730773926,0.17044992744923,-0.24243871867657,-0.44438135623932
100,678687407,-178.75019836425781,0.18978685140610,-177.22048950195312,0.04456221312284,-0.24620801210403,-9.67135143280029,0.10515923798084,-0.34171947836876,-0.41410532593727
101,678695740,-178.75343322753906,0.19619062542915,-177.21755981445312,0.05539161711931,-0.24471306800842,-9.66272544860840,0.08453977853060,-0.11423947662115,-0.54040908813477
102,678704073,-178.75468444824219,0.19772091507912,-177.21240234375000,0.05235165730119,-0.24828948080540,-9.67540073394775,0.05719659104943,-0.17932526767254,-0.41036573052406
103,678712406,-178.75859069824219,0.20500896871090,-177.21051025390625,0.06718665361404,-0.24345441162586,-9.65056610107422,0.00598092377186,-0.21961644291878,-0.41203057765961
104,678720739,-178.75851440429688,0.20630875229836,-177.19898986816406,0.04434790462255,-0.25221657752991,-9.65863418579102,0.21688851714134,-0.16111356019974,-0.47873011231422
105,678729072,-178.76147460937500,0.21391284465790,-177.19708251953125,0.05712988600135,-0.24352599680424,-9.64817714691162,0.11813284456730,-0.25676989555359,-0.41060900688171
106,678737405,-178.76205444335938,0.21512238681316,-177.19950866699219,0.06194376945496,-0.24406945705414,-9.65135955810547,0.13222067058086,-0.15833438932896,-0.43468636274338
107,678745738,-178.76423645019531,0.22149802744389,-177.19686889648438,0.06964723020792,-0.24050718545914,-9.66635227203369,0.21072830259800,-0.11138349771500,-0.49792790412903
108,678754071,-178.76463317871094,0.22323267161846,-177.19290161132812,0.06496945768595,-0.24131572246552,-9.67468547821045,0.15189240872860,-0.23177038133144,-0.46391221880913
109,678762404,-178.76734924316406,0.22933411598206,-177.19044494628906,0.03949084505439,-0.25628635287285,-9.66730308532715,0.14669272303581,-0.07992922514677,-0.47917827963829
110,678770737,-178.76846313476562,0.23029594123363,-177.17985534667969,0.04238046705723,-0.24286022782326,-9.68623733520508,0.06858211755753,-0.14938223361969,-0.35808703303337
111,678779070,-178.77075195312500,0.23721295595169,-177.17765808105469,0.05959748849273,-0.25391161441803,-9.64198970794678,0.19790837168694,-0.17699436843395,-0.44471433758736
112,678787403,-178.77003479003906,0.23885747790337,-177.17425537109375,0.05671460554004,-0.23786042630672,-9.65562248229980,0.27954095602036,-0.23332007229328,-0.38354754447937
113,678795736,-178.77383422851562,0.24716134369373,-177.17190551757812,0.05163637176156,-0.26181551814079,-9.64994335174561,0.01727680116892,-0.34438335895538,-0.45962178707123
114,678804069,-178.77458190917969,0.24837051331997,-177.17425537109375,0.05865331366658,-0.24441979825497,-9.67359733581543,0.09560512751341,-0.19292642176151,-0.44007816910744
115,678812402,-178.77726745605469,0.25490483641624,-177.17132568359375,0.06774457544088,-0.23847578465939,-9.67184543609619,0.15221257507801,-0.13368068635464,-0.53180277347565
116,678820735,-178.77764892578125,0.25631570816040,-177.17764282226562,0.04894704744220,-0.24381202459335,-9.65613079071045,0.13503824174404,-0.22193452715874,-0.38366279006004
117,678829068,-178.78012084960938,0.26405027508736,-177.17506408691406,0.05721559002995,-0.23411254584789,-9.66343402862549,0.17709684371948,-0.27836272120476,-0.48816895484924
118,678837401,-178.78045654296875,0.26540511846542,-177.17056274414062,0.06772294640541,-0.24841083586216,-9.65361309051514,0.14422093331814,-0.22476491332054,-0.45826423168182
119,678845734,-178.78263854980469,0.27208146452904,-177.16853332519531,0.06352462619543,-0.24077914655209,-9.65035152435303,0.20848706364632,-0.15091907978058,-0.42867982387543
120,678854067,-178.78268432617188,0.27380236983299,-177.16122436523438,0.05565626919270,-0.22622296214104,-9.65716075897217,0.17796769738197,-0.27800410985947,-0.39255094528198
121,678862400,-178.78500366210938,0.28112554550171,-177.15937805175781,0.06320967525244,-0.23850439488888,-9.66916275024414,0.19420713186264,-0.22823563218117,-0.40563982725143
122,678870733,-178.78567504882812,0.28178855776787,-177.14729309082031,0.05189387500286,-0.25221639871597,-9.67275333404541,0.10436519980431,-0.16188193857670,-0.44199919700623
123,678879066,-178.78817749023438,0.28951081633568,-177.14546203613281,0.05688656121492,-0.24467015266418,-9.67366218566895,0.17001448571682,-0.27696672081947,-0.39932590723038
124,678887399,-178.78845214843750,0.28993344306946,-177.12765502929688,0.05579932779074,-0.24659426510334,-9.67356204986572,0.15077818930149,-0.14251759648323,-0.49558418989182
125,678895732,-178.79177856445312,0.29716601967812,-177.12509155273438,0.05429007858038,-0.24756704270840,-9.66193866729736,0.07250110059977,-0.22017997503281,-0.48603013157845
126,678904065,-178.79214477539062,0.29775512218475,-177.12158203125000,0.05604252591729,-0.25980556011200,-9.64982128143311,0.13441067934036,-0.16726094484329,-0.37576079368591
127,678912398,-178.79537963867188,0.30515089631081,-177.11938476562500,0.03456253558397,-0.25326785445213,-9.65553665161133,0.08197836577892,-0.24023592472076,-0.43528828024864
128,678920731,-178.79580688476562,0.30575954914093,-177.12666320800781,0.05761589854956,-0.23823224008083,-9.67003536224365,0.12125777453184,-0.17628996074200,-0.38589119911194
129,678929064,-178.79858398437500,0.31365802884102,-177.12481689453125,0.05310270562768,-0.23715965449810,-9.68024253845215,0.13517913222313,-0.30178695917130,-0.39322975277901
130,678937397,-178.79969787597656,0.31481388211250,-177.12028503417969,0.04884671792388,-0.23603634536266,-9.65089511871338,0.03669239208102,-0.24797141551971,-0.51205414533615
131,678945730,-178.80130004882812,0.32207402586937,-177.11817932128906,0.06843125075102,-0.22898396849632,-9.65738964080811,0.27814498543739,-0.22544370591640,-0.42805230617523
132,678954063,-178.80142211914062,0.32285925745964,-177.10383605957031,0.05623565241694,-0.24368305504322,-9.64756107330322,0.15737386047840,-0.20809003710747,-0.42873105406761
133,678962396,-178.80403137207031,0.33020856976509,-177.10154724121094,0.04259518161416,-0.23342587053776,-9.66827583312988,0.15595227479935,-0.23757204413414,-0.44937619566917
134,678970729,-178.80477905273438,0.33089554309845,-177.09144592285156,0.04097854718566,-0.24798166751862,-9.64976406097412,0.08251626044512,-0.20550301671028,-0.41787064075470
135,678979062,-178.80718994140625,0.33801433444023,-177.08897399902344,0.05934713780880,-0.24517084658146,-9.66937732696533,0.17808298766613,-0.21131744980812,-0.46786966919899
136,678987395,-178.80758666992188,0.33800971508026,-177.08181762695312,0.04420442879200,-0.23266039788723,-9.66125869750977,0.12188532948494,-0.12550973892212,-0.44030869007111
137,678995728,-178.80976867675781,0.34590828418732,-177.07949829101562,0.04658621922135,-0.23595765233040,-9.66203880310059,0.20820528268814,-0.30473256111145,-0.44171741604805
138,679004061,-178.80950927734375,0.34665030241013,-177.07196044921875,0.05825275182724,-0.23734563589096,-9.66132354736328,0.20130226016045,-0.22080750763416,-0.42041921615601
139,679012394,-178.81260681152344,0.35344186425209,-177.06936645507812,0.05454746261239,-0.24789588153362,-9.65718936920166,0.09610461443663,-0.17482995986938,-0.47700110077858
140,679020727,-178.81227111816406,0.35367158055305,-177.06668090820312,0.05401088669896,-0.25906151533127,-9.67844009399414,0.20543898642063,-0.16423848271370,-0.41272217035294
141,679029060,-178.81506347656250,0.36030623316765,-177.06396484375000,0.05348895862699,-0.25873264670372,-9.63487911224365,0.13430823385715,-0.15686157345772,-0.48912942409515
142,679037393,-178.81455993652344,0.36014848947525,-177.05476379394531,0.05887505039573,-0.25834637880325,-9.65324115753174,0.22499541938305,-0.12535606324673,-0.35509011149406
143,679045726,-178.81741333007812,0.36729425191879,-177.05310058593750,0.05874630063772,-0.23701660335064,-9.65783977508545,0.12385762482882,-0.21597921848297,-0.36390140652657
144,679054059,-178.81776428222656,0.36820551753044,-177.05241394042969,0.05969047546387,-0.24227394163609,-9.66784667968750,0.11363756656647,-0.26190555095673,-0.41740959882736
145,679062392,-178.82116699218750,0.37523344159126,-177.05038452148438,0.06782325357199,-0.23941995203495,-9.65659523010254,0.05939940735698,-0.20415824651718,-0.40146470069885
146,679070725,-178.82125854492188,0.37514004111290,-177.04846191406250,0.06092791631818,-0.22670935094357,-9.65620231628418,0.14333724975586,-0.14862658083439,-0.41767847537994
147,679079058,-178.82295227050781,0.38159960508347,-177.04652404785156,0.05338910594583,-0.22815436124802,-9.62797737121582,0.26378819346428,-0.13747158646584,-0.39486905932426
148,679087391,-178.82385253906250,0.38156136870384,-177.03775024414062,0.04544195905328,-0.23105095326900,-9.66017150878906,0.04770651459694,-0.16687673330307,-0.45682984590530
149,679095724,-178.82713317871094,0.38885000348091,-177.03544616699219,0.05175082013011,-0.23499950766563,-9.64497947692871,0.07165582478046,-0.23862221837044,-0.43679952621460
150,679104057,-178.82701110839844,0.38917967677116,-177.04188537597656,0.05668647587299,-0.24318256974220,-9.64290523529053,0.17102624475956,-0.21445517241955,-0.43020388484001
151,679112390,-178.82850646972656,0.39514309167862,-177.03952026367188,0.05114249140024,-0.25817465782166,-9.66120147705078,0.28595730662346,-0.08133800327778,-0.44508573412895
152,679120723,-178.82867431640625,0.39517441391945,-177.03430175781250,0.05381083860993,-0.23382644355297,-9.66068649291992,0.13620369136333,-0.18626670539379,-0.46372011303902
153,679129056,-178.83117675781250,0.40163189172745,-177.03138732910156,0.05043469741940,-0.26415449380875,-9.65379142761230,0.16238147020340,-0.14318358898163,-0.51056861877441
154,679137389,-178.83119201660156,0.40147140622139,-177.03488159179688,0.05146470665932,-0.25572845339775,-9.63289833068848,0.15100872516632,-0.16774760186672,-0.38751772046089
155,679145722,-178.83380126953125,0.40795183181763,-177.03279113769531,0.06977565586567,-0.24529929459095,-9.65778255462646,0.14995852112770,-0.14479726552963,-0.41192808747292
156,679154055,-178.83374023437500,0.40713211894035,-177.01994323730469,0.04330331087112,-0.25971257686615,-9.64812660217285,0.15554243326187,-0.09610460698605,-0.41528356075287
157,679162388,-178.83685302734375,0.41394883394241,-177.01841735839844,0.05487644672394,-0.24374711513519,-9.66159534454346,0.09109701961279,-0.18378213047981,-0.34456264972687
158,679170721,-178.83703613281250,0.41382282972336,-177.00746154785156,0.04215885698795,-0.23581492900848,-9.68266010284424,0.11997707933187,-0.18694548308849,-0.40010714530945
159,679179054,-178.83892822265625,0.42090198397636,-177.00529479980469,0.05138628557324,-0.22831182181835,-9.65252590179443,0.23606081306934,-0.21919380128384,-0.41675642132759
160,679187387,-178.83970642089844,0.42138200998306,-177.01071166992188,0.05582793802023,-0.23113696277142,-9.66138076782227,0.04419736191630,-0.26293009519577,-0.38977178931236
161,679195720,-178.84254455566406,0.42811632156372,-177.00837707519531,0.05384673550725,-0.23170222342014,-9.68178749084473,0.11986180394888,-0.17783962190151,-0.43288055062294
162,679204053,-178.84350585937500,0.42825445532799,-177.00761413574219,0.07220077514648,-0.22429859638214,-9.65583038330078,0.02701020985842,-0.23006705939770,-0.45239859819412
163,679212386,-178.84696960449219,0.43491023778915,-177.00564575195312,0.06548418849707,-0.24068568646908,-9.67580127716064,0.04481210187078,-0.16969428956509,-0.39558622241020
164,679220719,-178.84735107421875,0.43501028418541,-176.99044799804688,0.06712943315506,-0.23625840246677,-9.65338420867920,0.10139394551516,-0.23664994537830,-0.50795596837997
165,679229052,-178.84979248046875,0.44210880994797,-176.98800659179688,0.05602086707950,-0.25515598058701,-9.67804718017578,0.16678710281849,-0.22496983408928,-0.45022141933441
166,679237385,-178.84959411621094,0.44198295474052,-176.98858642578125,0.04472691193223,-0.23572219908237,-9.65922164916992,0.16507095098495,-0.21636344492435,-0.40931546688080
167,679245718,-178.85150146484375,0.44888040423393,-176.98645019531250,0.05182234570384,-0.24927657842636,-9.66359806060791,0.23202654719353,-0.20150718092918,-0.41108286380768
168,679254051,-178.85140991210938,0.44869700074196,-176.97248840332031,0.06185759231448,-0.25944766402245,-9.65529346466064,0.14947189390659,-0.21713188290596,-0.48615819215775
169,679262384,-178.85444641113281,0.45577362179756,-176.97038269042969,0.06290189176798,-0.25990521907806,-9.64997196197510,0.09761584550142,-0.22454719245434,-0.40891844034195
170,679270717,-178.85427856445312,0.45579251646996,-176.97355651855469,0.05670043081045,-0.26943302154541,-9.64894199371338,0.15122643113136,-0.24457752704620,-0.38655719161034
171,679279050,-178.85673522949219,0.46349343657494,-176.97052001953125,0.05824559926987,-0.26755923032761,-9.66820430755615,0.16440495848656,-0.30373358726501,-0.51402640342712
172,679287383,-178.85644531250000,0.46368393301964,-176.96765136718750,0.05355333536863,-0.25505608320236,-9.65139579772949,0.16158741712570,-0.27371373772621,-0.39112937450409
173,679295716,-178.85975646972656,0.47027415037155,-176.96553039550781,0.05940436199307,-0.24858275055885,-9.66208171844482,0.06009099259973,-0.16955341398716,-0.40927702188492
174,679304049,-178.85881042480469,0.47012668848038,-176.95489501953125,0.04314569756389,-0.25126484036446,-9.68654441833496,0.23365303874016,-0.24060732126236,-0.40115731954575
175,679312382,-178.86157226562500,0.47616893053055,-176.95265197753906,0.04967649281025,-0.23411254584789,-9.64394950866699,0.12497186660767,-0.10544100403786,-0.42449194192886
176,679320715,-178.86096191406250,0.47638791799545,-176.95411682128906,0.04291705787182,-0.22372661530972,-9.64745426177979,0.18604899942875,-0.29074713587761,-0.44817227125168
177,679329048,-178.86408996582031,0.48344880342484,-176.95167541503906,0.05800240486860,-0.21579411625862,-9.63392829895020,0.08236256986856,-0.22842772305012,-0.44051358103752
178,679337381,-178.86408996582031,0.48243600130081,-176.93240356445312,0.05087803304195,-0.24473436176777,-9.66572284698486,0.11763337254524,-0.14958710968494,-0.46387380361557
179,679345714,-178.86680603027344,0.48871824145317,-176.92977905273438,0.03372581303120,-0.24168039858341,-9.66508579254150,0.13141383230686,-0.13739477097988,-0.46717801690102
180,679354047,-178.86679077148438,0.48747208714485,-176.93400573730469,0.05482654273510,-0.23942711949348,-9.67407703399658,0.11727477610111,-0.12594519555569,-0.47896060347557
181,679362380,-178.86914062500000,0.49370288848877,-176.93138122558594,0.05310249701142,-0.24212360382080,-9.66057968139648,0.17395907640457,-0.13245122134686,-0.45939132571220
182,679370713,-178.86964416503906,0.49285498261452,-176.93225097656250,0.05318144708872,-0.25776723027229,-9.65003013610840,0.05592868104577,-0.17773719131947,-0.42342892289162
183,679379046,-178.87277221679688,0.49968132376671,-176.92980957031250,0.05602106451988,-0.25740936398506,-9.65456390380859,0.08023658394814,-0.20473457872868,-0.43992444872856
184,679387379,-178.87194824218750,0.49958202242851,-176.92953491210938,0.06456848233938,-0.25717306137085,-9.65296936035156,0.20805163681507,-0.27345758676529,-0.40857264399529
185,679395712,-178.87570190429688,0.50633913278580,-176.92753601074219,0.04866079241037,-0.25089311599731,-9.65254020690918,0.00429038424045,-0.19694782793522,-0.39184650778770
186,679404045,-178.87600708007812,0.50587880611420,-176.92744445800781,0.05799525231123,-0.25330361723900,-9.65884113311768,0.07137407362461,-0.23493377864361,-0.30017322301865
187,679412378,-178.87956237792969,0.51289337873459,-176.92559814453125,0.06043437123299,-0.23311115801334,-9.66612339019775,0.02503791265190,-0.23009267449379,-0.37074044346809
188,679420711,-178.87969970703125,0.51140713691711,-176.92105102539062,0.05687940865755,-0.23050037026405,-9.64441394805908,0.08530820161104,-0.12146269530058,-0.44235780835152
189,679429044,-178.88212585449219,0.51809221506119,-176.91813659667969,0.05808823928237,-0.24341124296188,-9.64913463592529,0.16230459511280,-0.19459134340286,-0.50116813182831
190,679437377,-178.88246154785156,0.51761311292648,-176.91499328613281,0.06031998991966,-0.24349734187126,-9.66296863555908,0.06128205358982,-0.24845805764198,-0.44878697395325
191,679445710,-178.88502502441406,0.52513265609741,-176.91184997558594,0.04241615533829,-0.24067847430706,-9.67165184020996,0.14491252601147,-0.29727879166603,-0.52575773000717
192,679454043,-178.88595581054688,0.52451223134995,-176.91343688964844,0.07501901686192,-0.25173714756966,-9.65399169921875,-0.01504836231470,-0.23725187778473,-0.39570152759552
193,679462376,-178.88894653320312,0.53088569641113,-176.91183471679688,0.06300939619541,-0.21879115700722,-9.65139579772949,0.09258265048265,-0.15770684182644,-0.34264162182808
194,679470709,-178.88925170898438,0.52964293956757,-176.91224670410156,0.06313814222813,-0.24223102629185,-9.67336845397949,0.05936098843813,-0.17156413197517,-0.44760873913765
195,679479042,-178.89155578613281,0.53597897291183,-176.90986633300781,0.05970498174429,-0.23503541946411,-9.67411327362061,0.17623873054981,-0.15698964893818,-0.43879744410515
196,679487375,-178.89074707031250,0.53495341539383,-176.90992736816406,0.06568455696106,-0.25260978937149,-9.65379905700684,0.19168412685394,-0.20447841286659,-0.42163589596748
197,679495708,-178.89390563964844,0.54141330718994,-176.90679931640625,0.05060636252165,-0.23999218642712,-9.67591571807861,0.07129722088575,-0.17466346919537,-0.52962553501129
198,679504041,-178.89396667480469,0.54064404964447,-176.91253662109375,0.06855999678373,-0.25298890471458,-9.66408443450928,0.08374574780464,-0.24497455358505,-0.48856595158577
199,679512374,-178.89770507812500,0.54724258184433,-176.91009521484375,0.05890366807580,-0.25924026966095,-9.66580867767334,0.00062754878309,-0.19190184772015,-0.44986283779144
200,679520707,-178.89733886718750,0.54584318399429,-176.90905761718750,0.06808791309595,-0.25857526063919,-9.65491485595703,0.13388559222221,-0.17444574832916,-0.37838625907898
201,679529040,-178.89950561523438,0.55249899625778,-176.90669250488281,0.04614299163222,-0.23589360713959,-9.65783309936523,0.18999359011650,-0.20045699179173,-0.44371533393860
202,679537373,-178.89907836914062,0.55115401744843,-176.91001892089844,0.06217250972986,-0.25011345744133,-9.64367771148682,0.13318119943142,-0.19195307791233,-0.53631085157394
203,679545706,-178.90173339843750,0.55749064683914,-176.90849304199219,0.05656468123198,-0.25616475939751,-9.64638805389404,0.13196451961994,-0.16117754578590,-0.34370458126068
204,679554039,-178.90092468261719,0.55539506673813,-176.89649963378906,0.06233702600002,-0.22030755877495,-9.66699600219727,0.18006806075573,-0.10631187260151,-0.38963091373444
205,679562372,-178.90348815917969,0.56149494647980,-176.89453125000000,0.05657898634672,-0.25343954563141,-9.65765380859375,0.14045563340187,-0.13698492944241,-0.39963328838348
206,679570705,-178.90385437011719,0.56017851829529,-176.88703918457031,0.05702239274979,-0.22808943688869,-9.65851211547852,0.03618010506034,-0.20693738758564,-0.40268138051033
207,679579038,-178.90666198730469,0.56663262844086,-176.88398742675781,0.06157167255878,-0.23610819876194,-9.65820503234863,0.11079438030720,-0.18296247720718,-0.52427220344543
208,679587371,-178.90687561035156,0.56612670421600,-176.88351440429688,0.05494105070829,-0.23889818787575,-9.64726829528809,0.05108759552240,-0.31108489632607,-0.50416499376297
209,679595704,-178.90855407714844,0.57263410091400,-176.88133239746094,0.04760932177305,-0.24050718545914,-9.65505027770996,0.24526913464069,-0.18928921222687,-0.41587275266647
210,679604037,-178.90826416015625,0.57109737396240,-176.87487792968750,0.05506973713636,-0.23622979223728,-9.65677452087402,0.11299719661474,-0.19487309455872,-0.46241378784180
211,679612370,-178.91098022460938,0.57811748981476,-176.87246704101562,0.05236596241593,-0.25713753700256,-9.65523624420166,0.12109130620956,-0.25317111611366,-0.44207608699799
212,679620703,-178.91134643554688,0.57622051239014,-176.86988830566406,0.05564915016294,-0.24526399374008,-9.66124439239502,0.03046812675893,-0.15586261451244,-0.45887899398804
213,679629036,-178.91479492187500,0.58411574363708,-176.86694335937500,0.05691517144442,-0.25325354933739,-9.65064430236816,0.03049374930561,-0.36003372073174,-0.50216710567474
214,679637369,-178.91510009765625,0.58216446638107,-176.86796569824219,0.05247322097421,-0.23861867189407,-9.66598701477051,0.03264534473419,-0.15401841700077,-0.46310541033745
215,679645702,-178.91874694824219,0.58906698226929,-176.86593627929688,0.06286633014679,-0.26162925362587,-9.64325523376465,0.00678777182475,-0.24117080867290,-0.39565029740334
216,679654035,-178.91786193847656,0.58785963058472,-176.86781311035156,0.05280924588442,-0.23660148680210,-9.65854072570801,0.17352361977100,-0.24866302311420,-0.42181518673897
217,679662368,-178.92033386230469,0.59442007541656,-176.86540222167969,0.06937525421381,-0.22868333756924,-9.66998577117920,0.14788375794888,-0.20309525728226,-0.44384345412254
218,679670701,-178.91960144042969,0.59275496006012,-176.86285400390625,0.05086386576295,-0.25519198179245,-9.67226696014404,0.15054766833782,-0.20273667573929,-0.49750533699989
219,679679034,-178.92327880859375,0.59895253181458,-176.86050415039062,0.05685794726014,-0.25999867916107,-9.67216682434082,0.00032017790363,-0.16126722097397,-0.43818271160126
220,679687367,-178.92225646972656,0.59666395187378,-176.86065673828125,0.06627108901739,-0.25308904051781,-9.65537261962891,0.18367968499660,-0.13328368961811,-0.49723640084267
221,679695700,-178.92442321777344,0.60266447067261,-176.85833740234375,0.05363180860877,-0.23828966915607,-9.65720367431641,0.18213003873825,-0.14049407839775,-0.43705573678017
222,679704033,-178.92283630371094,0.60114705562592,-176.85868835449219,0.05681534484029,-0.23856903612614,-9.66748905181885,0.24744631350040,-0.23367868363857,-0.47332549095154
223,679712366,-178.92585754394531,0.60846894979477,-176.85658264160156,0.06039860472083,-0.23418407142162,-9.66069412231445,0.08026219904423,-0.29899498820305,-0.41095480322838
224,679720699,-178.92581176757812,0.60668164491653,-176.85577392578125,0.04323893412948,-0.24328964948654,-9.66254711151123,0.05863098427653,-0.20671966671944,-0.47807684540749
225,679729032,-178.92965698242188,0.61332988739014,-176.85379028320312,0.06121402978897,-0.24231685698032,-9.65009403228760,-0.02183613553643,-0.22070504724979,-0.39821171760559
226,679737365,-178.92823791503906,0.61205440759659,-176.85165405273438,0.07270865142345,-0.22791104018688,-9.65995693206787,0.22425261139870,-0.27313736081123,-0.46995714306831
227,679745698,-178.93098449707031,0.61851054430008,-176.84895324707031,0.07482589036226,-0.26142209768295,-9.66589450836182,0.10997472703457,-0.20132790505886,-0.48538979887962
228,679754031,-178.93028259277344,0.61696690320969,-176.85154724121094,0.05142910033464,-0.24897642433643,-9.65002918243408,0.13525596261024,-0.24748475849628,-0.44894069433212
229,679762364,-178.93322753906250,0.62347501516342,-176.84957885742188,0.04326736181974,-0.24831767380238,-9.65746116638184,0.08624311536551,-0.20794914662838,-0.39810922741890
230,679770697,-178.93203735351562,0.62101310491562,-176.84579467773438,0.04595701768994,-0.22636602818966,-9.66664505004883,0.19150486588478,-0.14651344716549,-0.50849384069443
231,679779030,-178.93490600585938,0.62807875871658,-176.84318542480469,0.03542076423764,-0.23986311256886,-9.66085147857666,0.09273634850979,-0.27819621562958,-0.47665533423424
232,679787363,-178.93547058105469,0.62588751316071,-176.84523010253906,0.05225151777267,-0.23105828464031,-9.65722465515137,-0.02164403162897,-0.18163053691387,-0.47645041346550
233,679795696,-178.93804931640625,0.63178151845932,-176.84338378906250,0.04637188091874,-0.25259548425674,-9.65868377685547,0.12773819267750,-0.13720263540745,-0.38496911525726
234,679804029,-178.93786621093750,0.62969475984573,-176.84527587890625,0.03868257626891,-0.25924763083458,-9.65331268310547,0.06759596616030,-0.19634592533112,-0.37310978770256
235,679812362,-178.94068908691406,0.63651150465012,-176.84329223632812,0.05153633281589,-0.24522119760513,-9.65785503387451,0.09716759622097,-0.25058409571648,-0.40452563762665
236,679820695,-178.54785156250000,-0.32044818997383,-176.93913269042969,0.05417586490512,-0.23359785974026,-9.67318248748779,0.15280169248581,-0.22576382756233,-0.57142794132233
237,679829028,-178.55052185058594,-0.31360623240471,-176.93698120117188,0.05275235325098,-0.25035697221756,-9.65852737426758,0.11973373591900,-0.25913918018341,-0.42196887731552
238,679837361,-178.55093383789062,-0.31307366490364,-176.95924377441406,0.04605715721846,-0.25762394070625,-9.65536499023438,0.08474469929934,-0.26838597655296,-0.40613934397697
239,679845694,-178.55113220214844,-0.31265690922737,-176.95875549316406,0.05705823004246,-0.25014206767082,-9.64843368530273,0.09586126357317,-0.25340160727501,-0.49251049757004
240,679854027,-178.55146789550781,-0.31256902217865,-176.98223876953125,0.04559920728207,-0.24579277634621,-9.65108776092529,0.08991876244545,-0.21423745155334,-0.34381985664368
241,679862360,-178.55174255371094,-0.31315439939499,-176.98239135742188,0.05544883757830,-0.24354000389576,-9.64030838012695,0.08708839118481,-0.13100400567055,-0.41995817422867
242,679870693,-178.55256652832031,-0.31379151344299,-176.98249816894531,0.05509841442108,-0.23942737281322,-9.67031478881836,0.03100603073835,-0.12881398200989,-0.42035520076752
243,679879026,-178.55264282226562,-0.31448274850845,-176.98214721679688,0.05885359272361,-0.24280326068401,-9.66578674316406,0.11149877309799,-0.11983620375395,-0.47981870174408
244,679887359,-178.55282592773438,-0.31451046466827,-176.98205566406250,0.05953323468566,-0.24673752486706,-9.65670299530029,0.10921909660101,-0.20208349823952,-0.44375377893448
245,679895692,-178.55186462402344,-0.31462016701698,-176.98110961914062,0.06360308080912,-0.24568584561348,-9.67287540435791,0.23510026931763,-0.19164571166039,-0.55034744739532
246,679904025,-178.55169677734375,-0.31549257040024,-176.98101806640625,0.05398268252611,-0.25579291582108,-9.66906261444092,0.15170033276081,-0.10263624787331,-0.44287016987801
247,679912358,-178.55216979980469,-0.31539389491081,-176.98149108886719,0.04606430977583,-0.24585752189159,-9.65338420867920,0.06248592585325,-0.21172726154327,-0.37955170869827
248,679920691,-178.55278015136719,-0.31535866856575,-176.98208618164062,0.04984816163778,-0.23272490501404,-9.63680362701416,0.05585183948278,-0.20978057384491,-0.36062282323837
249,679929024,-178.55256652832031,-0.31531926989555,-176.98255920410156,0.05711545050144,-0.24934095144272,-9.62811279296875,0.14657746255398,-0.20524686574936,-0.37855279445648
250,679937357,-178.55207824707031,-0.31497624516487,-176.98254394531250,0.04808856174350,-0.24393340945244,-9.66156673431396,0.18713760375977,-0.24680595099926,-0.43486565351486
251,679945690,-178.55267333984375,-0.31485900282860,-176.98251342773438,0.05147895962000,-0.25376829504967,-9.66292572021484,0.04882073029876,-0.21601764857769,-0.43840041756630
252,679954023,-178.55252075195312,-0.31425464153290,-176.98255920410156,0.04011314362288,-0.25621482729912,-9.64699649810791,0.14565536379814,-0.27824744582176,-0.42317274212837
253,679962356,-178.55238342285156,-0.31377771496773,-176.98231506347656,0.04491269960999,-0.25899013876915,-9.65409946441650,0.13868826627731,-0.25929290056229,-0.46031340956688
254,679970689,-178.55221557617188,-0.31376087665558,-176.98313903808594,0.05843157321215,-0.25243812799454,-9.64407062530518,0.14609077572823,-0.20463210344315,-0.33503416180611
255,679979022,-178.55267333984375,-0.31311032176018,-176.98287963867188,0.04464081674814,-0.23421952128410,-9.66249656677246,0.06476559489965,-0.28114184737206,-0.46441167593002
256,679987355,-178.55212402343750,-0.31217470765114,-176.98268127441406,0.04176568612456,-0.23567937314510,-9.66949176788330,0.19311854243279,-0.31789830327034,-0.45490884780884
257,679995688,-178.55241394042969,-0.31259232759476,-176.98303222656250,0.04308157414198,-0.24796044826508,-9.65912723541260,0.08368170261383,-0.14995852112770,-0.39465132355690
258,680004021,-178.55313110351562,-0.31245639920235,-176.98379516601562,0.04934746399522,-0.23834703862667,-9.65085887908936,0.04096997156739,-0.21756729483604,-0.33946546912193
259,680012354,-178.55264282226562,-0.31291899085045,-176.98374938964844,0.04680105298758,-0.23801085352898,-9.65972805023193,0.18000404536724,-0.14712817966938,-0.44138452410698
260,680020687,-178.55239868164062,-0.31359699368477,-176.98391723632812,0.06122799217701,-0.23203799128532,-9.65369129180908,0.15446664392948,-0.12036129832268,-0.41589835286140
261,680029020,-178.55203247070312,-0.31449523568153,-176.98339843750000,0.05755892768502,-0.24069316685200,-9.65318393707275,0.16427689790726,-0.09671935439110,-0.50039964914322
262,680037353,-178.55227661132812,-0.31394651532173,-176.98307800292969,0.04164385050535,-0.23843286931515,-9.65473556518555,0.09837146103382,-0.26846274733543,-0.46799767017365
263,680045686,-178.55184936523438,-0.31374618411064,-176.98377990722656,0.05466917902231,-0.24912635982037,-9.67183780670166,0.17326748371124,-0.22425261139870,-0.34968551993370
264,680054019,-178.55158996582031,-0.31370621919632,-176.98335266113281,0.06509106606245,-0.24443434178829,-9.64784717559814,0.15743787586689,-0.20829494297504,-0.48221355676651
265,680062352,-178.55172729492188,-0.31410339474678,-176.98397827148438,0.07372415065765,-0.25680109858513,-9.65632343292236,0.10441642999649,-0.15327557921410,-0.36441373825073
266,680070685,-178.55125427246094,-0.31406122446060,-176.98416137695312,0.04876808449626,-0.24592904746532,-9.64387798309326,0.18166896700859,-0.20688617229462,-0.40890565514565
267,680079018,-178.55130004882812,-0.31380400061607,-176.98451232910156,0.05339584872127,-0.25399720668793,-9.67383384704590,0.11575072258711,-0.23156547546387,-0.39078357815742
268,680087351,-178.55107116699219,-0.31378227472305,-176.98408508300781,0.05821698904037,-0.24640828371048,-9.67478561401367,0.15378786623478,-0.20882005989552,-0.48565867543221
269,680095684,-178.55184936523438,-0.31370159983635,-176.98463439941406,0.05966186150908,-0.24831809103489,-9.65827655792236,0.02539651282132,-0.20939636230469,-0.36953654885292
270,680104017,-178.55172729492188,-0.31396424770355,-176.98483276367188,0.05413986742496,-0.23892641067505,-9.66975688934326,0.14053252339363,-0.17261433601379,-0.40765058994293
271,680112350,-178.55191040039062,-0.31385549902916,-176.98516845703125,0.05362486466765,-0.23865459859371,-9.66399860382080,0.09755180776119,-0.21372517943382,-0.39425429701805
272,680120683,-178.55123901367188,-0.31411850452423,-176.98550415039062,0.04773114621639,-0.24422684311867,-9.66092300415039,0.20712950825691,-0.17202520370483,-0.39325532317162
273,680129016,-178.55140686035156,-0.31403249502182,-176.98524475097656,0.06617095321417,-0.25278148055077,-9.66980648040771,0.10021568834782,-0.21267499029636,-0.46730607748032
274,680137349,-178.55081176757812,-0.31359562277794,-176.98460388183594,0.08015476167202,-0.25569984316826,-9.65084457397461,0.19811329245567,-0.25855007767677,-0.50777661800385
275,680145682,-178.55049133300781,-0.31448879837990,-176.98402404785156,0.05604252591729,-0.25182297825813,-9.64652442932129,0.15903878211975,-0.09670653194189,-0.50714904069901
276,680154015,-178.55015563964844,-0.31463876366615,-176.98333740234375,0.05491975322366,-0.23472793400288,-9.66250419616699,0.16412320733070,-0.19031375646591,-0.51620364189148
277,680162348,-178.55027770996094,-0.31461849808693,-176.98411560058594,0.04790258780122,-0.24198782444000,-9.66110134124756,0.10697784274817,-0.20186576247215,-0.34161704778671
278,680170681,-178.55059814453125,-0.31452822685242,-176.98454284667969,0.04365380108356,-0.24827517569065,-9.65846920013428,0.08491118997335,-0.21663238108158,-0.38035857677460
279,680179014,-178.55023193359375,-0.31447649002075,-176.98477172851562,0.06104951351881,-0.24158011376858,-9.68723106384277,0.16272723674774,-0.20700143277645,-0.40753528475761
280,680187347,-178.55023193359375,-0.31479161977768,-176.98542785644531,0.05761638656259,-0.24947713315487,-9.67165184020996,0.12402412295341,-0.16650532186031,-0.35592257976532
281,680195680,-178.55053710937500,-0.31543597579002,-176.98561096191406,0.06654272228479,-0.24036388099194,-9.65276145935059,0.08410433679819,-0.12369114160538,-0.41451513767242
282,680204013,-178.55097961425781,-0.31507256627083,-176.98542785644531,0.05298118665814,-0.25542828440666,-9.66325473785400,0.07050318270922,-0.25066089630127,-0.45457583665848
283,680212346,-178.55093383789062,-0.31523448228836,-176.98545837402344,0.04267385974526,-0.22968493402004,-9.66524314880371,0.12647029757500,-0.18221966922283,-0.43060088157654
284,680220679,-178.55001831054688,-0.31476697325706,-176.98576354980469,0.05205863714218,-0.22860512137413,-9.67708873748779,0.23481848835945,-0.26157256960869,-0.39504832029343
285,680229012,-178.55027770996094,-0.31503048539162,-176.98597717285156,0.04665780067444,-0.24352535605431,-9.65753269195557,0.08872770518064,-0.17019377648830,-0.40986615419388
286,680237345,-178.55003356933594,-0.31528288125992,-176.98620605468750,0.04388285800815,-0.23470643162727,-9.65837669372559,0.15228943526745,-0.17450977861881,-0.40800914168358
287,680245678,-178.54965209960938,-0.31546249985695,-176.98609924316406,0.05334590375423,-0.24634391069412,-9.64999294281006,0.16699200868607,-0.18055473268032,-0.44566205143929
288,680254011,-178.55047607421875,-0.31439325213432,-176.98554992675781,0.04870367795229,-0.24679411947727,-9.65077304840088,0.02677968144417,-0.33544400334358,-0.49842739105225
289,680262344,-178.55094909667969,-0.31475037336349,-176.98536682128906,0.05999082326889,-0.24859689176083,-9.66518592834473,0.06421488523483,-0.15925648808479,-0.45661213994026
290,680270677,-178.55076599121094,-0.31408515572548,-176.98553466796875,0.07316642999649,-0.24542835354805,-9.65141677856445,0.14726902544498,-0.28401064872742,-0.41118529438972
291,680279010,-178.55026245117188,-0.31426709890366,-176.98556518554688,0.05697954818606,-0.25710177421570,-9.65357685089111,0.17946612834930,-0.17950454354286,-0.43054965138435
292,680287343,-178.55009460449219,-0.31403824687004,-176.98530578613281,0.04378255084157,-0.25844651460648,-9.66166687011719,0.14432340860367,-0.23421655595303,-0.46530818939209
293,680295676,-178.55052185058594,-0.31393530964851,-176.98519897460938,0.07069870084524,-0.24622946977615,-9.66427040100098,0.07131003588438,-0.21604327857494,-0.44577735662460
294,680304009,-178.55075073242188,-0.31426489353180,-176.98544311523438,0.05477667599916,-0.24931982159615,-9.65663146972656,0.09516968578100,-0.16493003070354,-0.40544772148132
295,680312342,-178.55149841308594,-0.31434461474419,-176.98634338378906,0.04630750417709,-0.23911954462528,-9.67299652099609,0.02918741665781,-0.19049306213856,-0.32717061042786
296,680320675,-178.55114746093750,-0.31471645832062,-176.98603820800781,0.05469778925180,-0.24496340751648,-9.67734622955322,0.16501970589161,-0.16093423962593,-0.47150680422783
297,680329008,-178.55184936523438,-0.31502014398575,-176.98614501953125,0.04555645585060,-0.24475598335266,-9.66558647155762,0.03484816849232,-0.16551919281483,-0.42194330692291
298,680337341,-178.55303955078125,-0.31485375761986,-176.98634338378906,0.05524140596390,-0.24414798617363,-9.65295505523682,-0.01985103264451,-0.22548210620880,-0.41100603342056
299,680345674,-178.55354309082031,-0.31457170844078,-176.98687744140625,0.05771640688181,-0.22342664003372,-9.65276145935059,0.06179433688521,-0.23460078239441,-0.36805093288422
300,680354007,-178.55351257324219,-0.31531560420990,-176.98756408691406,0.05561335384846,-0.23713819682598,-9.66045093536377,0.12524078786373,-0.11411140859127,-0.35316905379295
301,680362340,-178.55346679687500,-0.31541228294373,-176.98716735839844,0.04499853402376,-0.24287478625774,-9.65992164611816,0.12693132460117,-0.19200430810452,-0.48336619138718
302,680370673,-178.55392456054688,-0.31514796614647,-176.98786926269531,0.06680028140545,-0.23614354431629,-9.65767574310303,0.06849245727062,-0.23627850413322,-0.35003131628036
303,680379006,-178.55424499511719,-0.31497779488564,-176.98767089843750,0.05001258477569,-0.24355407059193,-9.66135883331299,0.08231133967638,-0.22169120609760,-0.45562598109245
304,680387339,-178.55387878417969,-0.31490230560303,-176.98771667480469,0.06150014325976,-0.24778878688812,-9.64941406250000,0.16796533763409,-0.21541571617126,-0.42783454060555
305,680395672,-178.55331420898438,-0.31464800238609,-176.98768615722656,0.05453327298164,-0.25370419025421,-9.65741062164307,0.18756021559238,-0.23357619345188,-0.43795216083527
306,680404005,-178.55317687988281,-0.31443858146667,-176.98869323730469,0.03419058769941,-0.26525601744652,-9.65279006958008,0.13991774618626,-0.22783859074116,-0.31280106306076
307,680412338,-178.55375671386719,-0.31387823820114,-176.98915100097656,0.04825302958488,-0.24926200509071,-9.64817619323730,0.05092109739780,-0.26750224828720,-0.37864243984222
308,680420671,-178.55342102050781,-0.31383112072945,-176.98951721191406,0.04754494875669,-0.23841856420040,-9.66653823852539,0.16330355405807,-0.20970374345779,-0.38977178931236
309,680429004,-178.55424499511719,-0.31306824088097,-176.98963928222656,0.05858178436756,-0.24853983521461,-9.65472126007080,0.02096525207162,-0.29330861568451,-0.41710224747658
310,680437337,-178.55313110351562,-0.31352913379669,-176.98921203613281,0.05767337232828,-0.23816820979118,-9.65035152435303,0.25597584247589,-0.15063731372356,-0.48684975504875
311,680445670,-178.55363464355469,-0.31371456384659,-176.98968505859375,0.06790181994438,-0.24228075146675,-9.67397689819336,0.06141012534499,-0.17924840748310,-0.37801489233971
312,680454003,-178.55386352539062,-0.31360638141632,-176.98924255371094,0.06197223067284,-0.24108657240868,-9.65922069549561,0.09490074962378,-0.21857908368111,-0.48655524849892
313,680462336,-178.55378723144531,-0.31367784738541,-176.98881530761719,0.04745911434293,-0.24893324077129,-9.65403461456299,0.12955678999424,-0.19544941186905,-0.48763096332550
314,680470669,-178.55279541015625,-0.31462499499321,-177.02664184570312,0.04049939662218,-0.24671585857868,-9.65978527069092,0.24060732126236,-0.09008526057005,-0.33129450678825
315,680479002,-178.55238342285156,-0.31407871842384,-177.02702331542969,0.05343173816800,-0.25837498903275,-9.69195938110352,0.16947658360004,-0.26623433828354,-0.38887530565262
316,680487335,-178.55087280273438,-0.31366583704948,-177.06001281738281,0.07112745195627,-0.24762395024300,-9.65069484710693,0.30515515804291,-0.25619360804558,-0.50839132070541
317,680495668,-178.55110168457031,-0.31409606337547,-177.05986022949219,0.06132132187486,-0.26634326577187,-9.65662384033203,0.09154527634382,-0.15111118555069,-0.45533141493797
318,680504001,-178.55131530761719,-0.31391879916191,-177.08465576171875,0.04208732768893,-0.24730955064297,-9.66607284545898,0.09750058501959,-0.22530281543732,-0.36400389671326
319,680512334,-178.55177307128906,-0.31422930955887,-177.08360290527344,0.05661475285888,-0.25099325180054,-9.68892669677734,0.06579015403986,-0.16843920946121,-0.56125909090042
320,680520667,-178.55151367187500,-0.31496283411980,-177.10003662109375,0.05755177512765,-0.24373312294483,-9.65864849090576,0.15230223536491,-0.11655756831169,-0.42741191387177
321,680529000,-178.55218505859375,-0.31533879041672,-177.10026550292969,0.06908215582371,-0.25291737914085,-9.66201019287109,0.03977890685201,-0.15666946768761,-0.40886721014977
322,680537333,-178.55198669433594,-0.31576621532440,-177.11451721191406,0.05097861588001,-0.24391223490238,-9.66650199890137,0.14364464581013,-0.15357016026974,-0.39572715759277
323,680545666,-178.55242919921875,-0.31622695922852,-177.11392211914062,0.04692972078919,-0.23953422904015,-9.65017986297607,0.06627682596445,-0.14840887486935,-0.50723868608475
324,680553999,-178.55354309082031,-0.31640705466270,-177.13093566894531,0.06644275784492,-0.23143738508224,-9.64351272583008,-0.01024569291621,-0.18667654693127,-0.50752043724060
325,680562332,-178.55441284179688,-0.31667798757553,-177.13044738769531,0.04728030413389,-0.23293252289295,-9.66523647308350,0.01443362049758,-0.17158973217010,-0.49373996257782
326,680570665,-178.55409240722656,-0.31551182270050,-177.14363098144531,0.05165068060160,-0.22649477422237,-9.65856266021729,0.15933334827423,-0.34761077165604,-0.52163386344910
327,680578998,-178.55380249023438,-0.31502029299736,-177.14331054687500,0.04888968169689,-0.25332507491112,-9.65533638000488,0.15705367922783,-0.26282766461372,-0.47278749942780
328,680587331,-178.55361938476562,-0.31487634778023,-177.15490722656250,0.05544168502092,-0.25183013081551,-9.67782497406006,0.14363181591034,-0.22284384071827,-0.43080580234528
329,680595664,-178.55358886718750,-0.31472614407539,-177.15495300292969,0.04438352957368,-0.23163078725338,-9.64393520355225,0.12237200886011,-0.22043609619141,-0.42786017060280
330,680603997,-178.55429077148438,-0.31531754136086,-177.16175842285156,0.05869622901082,-0.26633611321449,-9.65670299530029,0.03866469115019,-0.13332210481167,-0.38462337851524
331,680612330,-178.55406188964844,-0.31564298272133,-177.16156005859375,0.05700815841556,-0.26081410050392,-9.64095211029053,0.14749956130981,-0.16385425627232,-0.46100494265556
332,680620663,-178.55464172363281,-0.31554946303368,-177.17088317871094,0.05004853755236,-0.25266742706299,-9.67858314514160,0.04999898746610,-0.21555657684803,-0.37308412790298
333,680628996,-178.55538940429688,-0.31536257266998,-177.17106628417969,0.05580648034811,-0.25321778655052,-9.67826175689697,0.03028883039951,-0.22415016591549,-0.41387477517128
334,680637329,-178.55615234375000,-0.31549510359764,-177.18037414550781,0.05964758247137,-0.25256711244583,-9.67172431945801,0.02683090977371,-0.18875131011009,-0.42637452483177
335,680645662,-178.55511474609375,-0.31518983840942,-177.18057250976562,0.05397508293390,-0.24595741927624,-9.66439247131348,0.24575576186180,-0.23851972818375,-0.40998142957687
336,680653995,-178.55583190917969,-0.31592544913292,-177.18630981445312,0.04458359628916,-0.24266712367535,-9.66567993164062,0.03525799512863,-0.11677528917789,-0.40508911013603
337,680662328,-178.55587768554688,-0.31562626361847,-177.18647766113281,0.05766621977091,-0.23618687689304,-9.66500759124756,0.11436755955219,-0.23712375760078,-0.41345214843750
338,680670661,-178.55470275878906,-0.31562563776970,-177.19522094726562,0.04850342869759,-0.23094384372234,-9.66818332672119,0.26089379191399,-0.20716793835163,-0.45165580511093
339,680678994,-178.55464172363281,-0.31564709544182,-177.19540405273438,0.06525552272797,-0.24243870377541,-9.67113113403320,0.12623974680901,-0.19856153428555,-0.41223549842834
340,680687327,-178.55525207519531,-0.31516388058662,-177.20108032226562,0.05331013724208,-0.24311082065105,-9.66057968139648,0.04721983894706,-0.26267397403717,-0.39581674337387
341,680695660,-178.55465698242188,-0.31517606973648,-177.20161437988281,0.05949019640684,-0.22267515957355,-9.63868522644043,0.19071078300476,-0.19907383620739,-0.37222605943680
342,680703993,-178.55453491210938,-0.31534078717232,-177.20579528808594,0.04845362156630,-0.24326136708260,-9.65381336212158,0.13494859635830,-0.18383336067200,-0.36231333017349
343,680712326,-178.55461120605469,-0.31517499685287,-177.20617675781250,0.05134310573339,-0.25916895270348,-9.66283988952637,0.10987227410078,-0.22043612599373,-0.38805568218231
344,680720659,-178.55381774902344,-0.31495630741119,-177.21385192871094,0.04209448024631,-0.25081443786621,-9.64883422851562,0.21645309031010,-0.23275655508041,-0.44996523857117
345,680728992,-178.55447387695312,-0.31546738743782,-177.21411132812500,0.04717300087214,-0.25552099943161,-9.65228271484375,0.04043206572533,-0.13987933099270,-0.40565261244774
346,680737325,-178.55432128906250,-0.31522637605667,-177.21768188476562,0.06160726025701,-0.22090813517570,-9.66782569885254,0.13957194983959,-0.23463919758797,-0.47853794693947
347,680745658,-178.55490112304688,-0.31513965129852,-177.21737670898438,0.04851058125496,-0.24660857021809,-9.65236091613770,0.05188162997365,-0.21382762491703,-0.47035413980484
348,680753991,-178.55516052246094,-0.31471329927444,-177.22076416015625,0.05454054474831,-0.24763174355030,-9.65781116485596,0.08899665623903,-0.25936973094940,-0.51113206148148
349,680762324,-178.55549621582031,-0.31544566154480,-177.22091674804688,0.04270962625742,-0.24424812197685,-9.64525794982910,0.07964746654034,-0.11239527165890,-0.41764011979103
350,680770657,-178.55551147460938,-0.31465819478035,-177.22254943847656,0.05164336413145,-0.23853261768818,-9.65111637115479,0.11863234639168,-0.30281147360802,-0.51105517148972
351,680778990,-178.55403137207031,-0.31445461511612,-177.22302246093750,0.06429690867662,-0.23840425908566,-9.65634536743164,0.29711228609085,-0.22432945668697,-0.37862959504128
352,680787323,-178.55476379394531,-0.31454709172249,-177.22587585449219,0.05285235494375,-0.24026399850845,-9.65731811523438,0.03236358612776,-0.19200430810452,-0.37573519349098
353,680795656,-178.55509948730469,-0.31439399719238,-177.22554016113281,0.04473397880793,-0.24539998173714,-9.66309070587158,0.08141484111547,-0.22189611196518,-0.47373524308205
354,680803989,-178.55551147460938,-0.31433948874474,-177.22772216796875,0.06161458790302,-0.24813212454319,-9.65624523162842,0.06914562731981,-0.21077953279018,-0.43167668581009
355,680812322,-178.55511474609375,-0.31399002671242,-177.22763061523438,0.07292323559523,-0.24100074172020,-9.65515041351318,0.17025780677795,-0.24442382156849,-0.44485521316528
356,680820655,-178.55458068847656,-0.31388664245605,-177.23153686523438,0.05607828870416,-0.23467047512531,-9.65819072723389,0.18365406990051,-0.21786189079285,-0.41183853149414
357,680828988,-178.55461120605469,-0.31435078382492,-177.23196411132812,0.05880328267813,-0.24968402087688,-9.68417644500732,0.11563546210527,-0.14515584707260,-0.38475140929222
358,680837321,-178.55480957031250,-0.31501436233521,-177.23527526855469,0.04893957823515,-0.23719523847103,-9.67170238494873,0.09621986746788,-0.12289708852768,-0.34656056761742
359,680845654,-178.55430603027344,-0.31535890698433,-177.23538208007812,0.06517690420151,-0.23492096364498,-9.65309810638428,0.18143844604492,-0.16062687337399,-0.42465841770172
360,680853987,-178.55429077148438,-0.31615367531776,-177.23886108398438,0.04923301935196,-0.24894754588604,-9.65909862518311,0.12258972972631,-0.10751575976610,-0.33865863084793
361,680862320,-178.55502319335938,-0.31597033143044,-177.23878479003906,0.06067041307688,-0.24549272656441,-9.65245437622070,0.03146708756685,-0.22458560764790,-0.44427895545959
362,680870653,-178.55558776855469,-0.31505990028381,-177.24214172363281,0.07036966830492,-0.23985628783703,-9.65478610992432,0.05359779298306,-0.31359508633614,-0.40742006897926
363,680878986,-178.55630493164062,-0.31466919183731,-177.24237060546875,0.05299544334412,-0.23553624749184,-9.66349887847900,0.03209463879466,-0.24793298542500,-0.40561422705650
364,680887319,-178.55622863769531,-0.31446272134781,-177.24548339843750,0.05535585060716,-0.26067820191383,-9.66712474822998,0.13122171163559,-0.23269250988960,-0.45730373263359
365,680895652,-178.55662536621094,-0.31516522169113,-177.24571228027344,0.04745911434293,-0.23006403446198,-9.66767501831055,0.07218091189861,-0.11692898720503,-0.40890562534332
366,680903985,-178.55596923828125,-0.31436109542847,-177.24664306640625,0.07136406749487,-0.24052174389362,-9.67617321014404,0.20031611621380,-0.30568027496338,-0.56738090515137
367,680912318,-178.55686950683594,-0.31413647532463,-177.24650573730469,0.03738076612353,-0.24565748870373,-9.65638828277588,0.01310168020427,-0.23039999604225,-0.45257788896561
368,680920651,-178.55668640136719,-0.31405979394913,-177.24897766113281,0.05421139672399,-0.23660174012184,-9.65285491943359,0.14071181416512,-0.21495464444160,-0.39197459816933
369,680928984,-178.55731201171875,-0.31441563367844,-177.24916076660156,0.06353154778481,-0.25441232323647,-9.65037250518799,0.04709177464247,-0.15832160413265,-0.41469448804855
370,680937317,-178.55651855468750,-0.31451001763344,-177.25028991699219,0.03753096610308,-0.24472022056580,-9.66226100921631,0.21506991982460,-0.19494993984699,-0.44363859295845
371,680945650,-178.55632019042969,-0.31438443064690,-177.24951171875000,0.03861104696989,-0.25243812799454,-9.64587306976318,0.14465638995171,-0.21923223137856,-0.52780693769455
372,680953983,-178.55654907226562,-0.31347820162773,-177.25022888183594,0.03002048097551,-0.25766685605049,-9.65340518951416,0.09560513496399,-0.31643822789192,-0.46082565188408
373,680962316,-178.55674743652344,-0.31354922056198,-177.25061035156250,0.04956920072436,-0.24281041324139,-9.66359806060791,0.09411949664354,-0.19146640598774,-0.38997671008110
374,680970649,-178.55662536621094,-0.31307482719421,-177.25579833984375,0.05913241207600,-0.24350394308567,-9.67182350158691,0.13594755530357,-0.26170063018799,-0.39061704277992
375,680978982,-178.55686950683594,-0.31318396329880,-177.25625610351562,0.05126442387700,-0.26240205764771,-9.64037322998047,0.08884296566248,-0.18616424500942,-0.38014084100723
376,680987315,-178.55700683593750,-0.31276449561119,-177.26031494140625,0.06288064271212,-0.24853983521461,-9.65610218048096,0.10517204552889,-0.25541234016418,-0.42059850692749
377,680995648,-178.55680847167969,-0.31378614902496,-177.25979614257812,0.05143609270453,-0.24879018962383,-9.66649532318115,0.14516866207123,-0.08096659928560,-0.50009238719940
378,681003981,-178.55696105957031,-0.31388533115387,-177.25993347167969,0.05392528325319,-0.25206619501114,-9.66728210449219,0.09819217026234,-0.19325938820839,-0.45393544435501
379,681012314,-178.55746459960938,-0.31394490599632,-177.25959777832031,0.06024839729071,-0.24921935796738,-9.64045906066895,0.06148697808385,-0.19582083821297,-0.47639918327332
380,681020647,-178.55809020996094,-0.31457400321960,-177.26483154296875,0.05642167478800,-0.24599355459213,-9.67346858978271,0.04473525658250,-0.12981294095516,-0.47483667731285
381,681028980,-178.55860900878906,-0.31431519985199,-177.26457214355469,0.05986214429140,-0.23854015767574,-9.65706062316895,0.05892554298043,-0.23495936393738,-0.46658891439438
382,681037313,-178.55818176269531,-0.31431043148041,-177.26429748535156,0.07352407276630,-0.24791038036346,-9.65157413482666,0.16883622109890,-0.20386368036270,-0.35826629400253
383,681045646,-178.55928039550781,-0.31454840302467,-177.26475524902344,0.06312380731106,-0.23543615639210,-9.64086627960205,-0.01055306382477,-0.17230695486069,-0.38142159581184
384,681053979,-178.55966186523438,-0.31464895606041,-177.26573181152344,0.06363884359598,-0.23819682002068,-9.64875602722168,0.07280846685171,-0.19405344128609,-0.50063019990921
385,681062312,-178.55940246582031,-0.31511530280113,-177.26567077636719,0.05857463181019,-0.24654419720173,-9.65353393554688,0.15139293670654,-0.14740991592407,-0.44509854912758
386,681070645,-178.55902099609375,-0.31561043858528,-177.26748657226562,0.05599245429039,-0.26793834567070,-9.65945625305176,0.16453301906586,-0.14828079938889,-0.47391453385353
387,681078978,-178.55847167968750,-0.31530812382698,-177.26756286621094,0.05215853080153,-0.24292485415936,-9.65936374664307,0.18743218481541,-0.23805871605873,-0.42304474115372
388,681087311,-178.55902099609375,-0.31619983911514,-177.26976013183594,0.04230897128582,-0.24895453453064,-9.65525054931641,0.05029354617000,-0.09636075049639,-0.36994636058807
389,681095644,-178.55874633789062,-0.31573677062988,-177.27017211914062,0.03849660232663,-0.25341090559959,-9.65447139739990,0.15508137643337,-0.25680831074715,-0.38318893313408
390,681103977,-178.55860900878906,-0.31545349955559,-177.27282714843750,0.05652176588774,-0.25322493910789,-9.65540790557861,0.13251523673534,-0.23800747096539,-0.35742104053497
391,681112310,-178.55903625488281,-0.31565627455711,-177.27363586425781,0.03747374564409,-0.23219558596611,-9.65918445587158,0.06860772520304,-0.17471469938755,-0.33741632103920
392,681120643,-178.55854797363281,-0.31657314300537,-177.27551269531250,0.04721612110734,-0.23380506038666,-9.65045166015625,0.17622594535351,-0.09547705948353,-0.42105963826180
393,681128976,-178.55941772460938,-0.31674179434776,-177.27536010742188,0.05341029167175,-0.23497109115124,-9.65590190887451,0.01517643406987,-0.18257826566696,-0.45419156551361
394,681137309,-178.55870056152344,-0.31727474927902,-177.27464294433594,0.05207960307598,-0.24830365180969,-9.65426349639893,0.20588721334934,-0.14168514311314,-0.44854363799095
395,681145642,-178.55853271484375,-0.31739145517349,-177.27418518066406,0.05453327298164,-0.23588645458221,-9.68658733367920,0.14045563340187,-0.18926356732845,-0.48902693390846
396,681153975,-178.55732727050781,-0.31796196103096,-177.27542114257812,0.04504860565066,-0.23431998491287,-9.65574455261230,0.26340401172638,-0.13698495924473,-0.43503218889236
397,681162308,-178.55680847167969,-0.31771135330200,-177.27561950683594,0.03548505529761,-0.25303873419762,-9.66163063049316,0.18192511796951,-0.23178322613239,-0.41059619188309
398,681170641,-178.55665588378906,-0.31775182485580,-177.27861022949219,0.04838898405433,-0.25394022464752,-9.64992904663086,0.13812474906445,-0.19722959399223,-0.34960868954659
399,681178974,-178.55613708496094,-0.31771600246429,-177.27883911132812,0.06015541031957,-0.24333971738815,-9.65258979797363,0.18277037143707,-0.20611774921417,-0.40964844822884
400,681187307,-178.55603027343750,-0.31769365072250,-177.28105163574219,0.06086353957653,-0.24462006986141,-9.66233253479004,0.13015872240067,-0.20650196075439,-0.41897201538086
401,681195640,-178.55541992187500,-0.31729108095169,-177.28062438964844,0.06031992286444,-0.25512760877609,-9.63997936248779,0.19232448935509,-0.25081458687782,-0.48457005620003
402,681203973,-178.55506896972656,-0.31768679618835,-177.28273010253906,0.07071300595999,-0.24167311191559,-9.66680240631104,0.16225336492062,-0.15734823048115,-0.45716285705566
403,681212306,-178.55502319335938,-0.31727629899979,-177.28305053710938,0.05088519304991,-0.23720231652260,-9.65585899353027,0.12440836429596,-0.24954670667648,-0.39388293027878
404,681220639,-178.55499267578125,-0.31620776653290,-177.28344726562500,0.03976980596781,-0.24246707558632,-9.67977046966553,0.12302517890930,-0.33407369256020,-0.41475853323936
405,681228972,-178.55529785156250,-0.31619673967361,-177.28361511230469,0.05327446386218,-0.25326812267303,-9.66487884521484,0.08428363502026,-0.20245490968227,-0.41464319825172
406,681237305,-178.55636596679688,-0.31666785478592,-177.28567504882812,0.03057840280235,-0.24017816781998,-9.66233921051025,-0.01080920640379,-0.14582183957100,-0.34043878316879
407,681245638,-178.55690002441406,-0.31684687733650,-177.28585815429688,0.05980492010713,-0.24233831465244,-9.63405704498291,0.05605674907565,-0.17935086786747,-0.41338813304901
408,681253971,-178.55662536621094,-0.31688311696053,-177.28959655761719,0.05773059651256,-0.24212373793125,-9.64113807678223,0.15093187987804,-0.19674293696880,-0.35427045822144
409,681262304,-178.55688476562500,-0.31655994057655,-177.29019165039062,0.06250154227018,-0.24257436394691,-9.67462062835693,0.08845875412226,-0.24008221924305,-0.36438807845116
410,681270637,-178.55554199218750,-0.31622749567032,-177.29083251953125,0.06639954447746,-0.24285310506821,-9.68140125274658,0.27907988429070,-0.24325838685036,-0.39217951893806
411,681278970,-178.55552673339844,-0.31691199541092,-177.29176330566406,0.03968397155404,-0.24836100637913,-9.65017986297607,0.12070706486702,-0.11580195277929,-0.32619723677635
412,681287303,-178.55603027343750,-0.31687256693840,-177.29444885253906,0.05919692665339,-0.25906881690025,-9.65946388244629,0.06015503033996,-0.20888407528400,-0.38662123680115
413,681295636,-178.55592346191406,-0.31730002164841,-177.29512023925781,0.04557051509619,-0.24954813718796,-9.65562248229980,0.13005626201630,-0.14869062602520,-0.35529503226280
414,681303969,-178.55604553222656,-0.31768774986267,-177.29637145996094,0.04569951444864,-0.24748836457729,-9.68022155761719,0.10391695052385,-0.15897475183010,-0.47697544097900
415,681312302,-178.55670166015625,-0.31715679168701,-177.29656982421875,0.03629348427057,-0.23010666668415,-9.68092250823975,0.04202014952898,-0.26492801308632,-0.41036564111710
416,681320635,-178.55622863769531,-0.31712740659714,-177.29605102539062,0.04346782714128,-0.23449164628983,-9.63952159881592,0.17480434477329,-0.20670686662197,-0.42839807271957
417,681328968,-178.55616760253906,-0.31767952442169,-177.29577636718750,0.05631433427334,-0.25996291637421,-9.67228889465332,0.12767414748669,-0.13793264329433,-0.47224962711334
418,681337301,-178.55598449707031,-0.31740060448647,-177.29978942871094,0.04393991455436,-0.25252395868301,-9.66126632690430,0.14173635840416,-0.23575340211391,-0.41520670056343
419,681345634,-178.55555725097656,-0.31761056184769,-177.29992675781250,0.05334609001875,-0.26452660560608,-9.63018035888672,0.16942533850670,-0.17727610468864,-0.42081624269485
420,681353967,-178.55557250976562,-0.31835055351257,-177.30526733398438,0.04939037933946,-0.24755273759365,-9.66260433197021,0.11663443595171,-0.11032050102949,-0.28296047449112
421,681362300,-178.55517578125000,-0.31846725940704,-177.30566406250000,0.03989105671644,-0.24364693462849,-9.65811920166016,0.16758114099503,-0.18618988990784,-0.38746657967567
422,681370633,-178.55525207519531,-0.31834053993225,-177.30635070800781,0.06418246030807,-0.25060701370239,-9.67040061950684,0.10854031890631,-0.21761852502823,-0.39878803491592
423,681378966,-178.55590820312500,-0.31818813085556,-177.30671691894531,0.06313091516495,-0.24797433614731,-9.66253280639648,0.03910012915730,-0.21856625378132,-0.38854229450226
424,681387299,-178.55577087402344,-0.31863722205162,-177.30752563476562,0.06599239259958,-0.23906974494457,-9.65731811523438,0.13458998501301,-0.14787097275257,-0.37455692887306
425,681395632,-178.55680847167969,-0.31908887624741,-177.30844116210938,0.06999773532152,-0.24438381195068,-9.64913463592529,-0.00440564844757,-0.14443865418434,-0.32709372043610
426,681403965,-178.55690002441406,-0.31918877363205,-177.30949401855469,0.04768085107207,-0.23255322873592,-9.66565799713135,0.10574836283922,-0.19108217954636,-0.42803946137428
427,681412298,-178.55718994140625,-0.31945079565048,-177.30947875976562,0.05268068984151,-0.25053548812866,-9.66394138336182,0.08735734969378,-0.17123116552830,-0.43874621391296
428,681420631,-178.55667114257812,-0.31964761018753,-177.30909729003906,0.04974825680256,-0.25248125195503,-9.67844772338867,0.17913317680359,-0.18175862729549,-0.49064072966576
429,681428964,-178.55717468261719,-0.31980350613594,-177.30914306640625,0.04743057116866,-0.23673786222935,-9.65833377838135,0.06002696603537,-0.18209159374237,-0.42893597483635
430,681437297,-178.55694580078125,-0.31966412067413,-177.31150817871094,0.06613503396511,-0.24678716063499,-9.66363430023193,0.14281216263771,-0.22058978676796,-0.43416127562523
431,681445630,-178.55654907226562,-0.31998142600060,-177.31167602539062,0.05918977409601,-0.24776732921600,-9.68655204772949,0.16841360926628,-0.16297058761120,-0.41626974940300
432,681453963,-178.55615234375000,-0.31942209601402,-177.31477355957031,0.05606398358941,-0.25212341547012,-9.64619541168213,0.16523742675781,-0.26914158463478,-0.37567117810249
433,681462296,-178.55601501464844,-0.31929939985275,-177.31492614746094,0.05167929083109,-0.27060636878014,-9.64776897430420,0.13761246204376,-0.21736238896847,-0.41548848152161
434,681470629,-178.55694580078125,-0.31914183497429,-177.31716918945312,0.05169359594584,-0.24613647162914,-9.66201782226562,0.00459775514901,-0.22035926580429,-0.40567827224731
435,681478962,-178.55686950683594,-0.31877350807190,-177.31744384765625,0.05092094838619,-0.23886892199516,-9.67486381530762,0.13014592230320,-0.24652418494225,-0.40046572685242
436,681487295,-178.55577087402344,-0.31930428743362,-177.31991577148438,0.04692980274558,-0.25063562393188,-9.66300487518311,0.24529471993446,-0.13793264329433,-0.40439748764038
437,681495628,-178.55633544921875,-0.31948077678680,-177.32057189941406,0.06020547822118,-0.25342524051666,-9.64764690399170,0.05277812853456,-0.17927402257919,-0.35637083649635
438,681503961,-178.55589294433594,-0.31911331415176,-177.32096862792969,0.06459017097950,-0.22409856319427,-9.65338420867920,0.17007853090763,-0.24672912061214,-0.42533719539642
439,681512294,-178.55635070800781,-0.31937861442566,-177.32069396972656,0.05959033593535,-0.24293200671673,-9.66425609588623,0.06625121831894,-0.17092379927635,-0.46940651535988
440,681520627,-178.55699157714844,-0.31958672404289,-177.32086181640625,0.04625743627548,-0.24383325874805,-9.63627433776855,0.04048329591751,-0.17906910181046,-0.42373627424240
441,681528960,-178.55674743652344,-0.32002833485603,-177.32157897949219,0.07001917809248,-0.24604348838329,-9.64257621765137,0.14875467121601,-0.14628288149834,-0.35047954320908
442,681537293,-178.55683898925781,-0.31994614005089,-177.32392883300781,0.07516195625067,-0.24117933213711,-9.65322685241699,0.10700346529484,-0.21433991193771,-0.44056481122971
443,681545626,-178.55656433105469,-0.32019314169884,-177.32435607910156,0.03984848782420,-0.26625743508339,-9.67539310455322,0.15257118642330,-0.17120553553104,-0.38408544659615
444,681553959,-178.55641174316406,-0.32050928473473,-177.32659912109375,0.03776701167226,-0.24735246598721,-9.66660213470459,0.13576824963093,-0.16667182743549,-0.45595899224281
445,681562292,-178.55612182617188,-0.31981202960014,-177.32617187500000,0.05559924989939,-0.24211692810059,-9.65402030944824,0.15558084845543,-0.28666171431541,-0.48686257004738
446,681570625,-178.55598449707031,-0.31973704695702,-177.32743835449219,0.05683648958802,-0.26321032643318,-9.66093730926514,0.13252803683281,-0.21186813712120,-0.39395973086357
447,681578958,-178.55563354492188,-0.32002216577530,-177.32748413085938,0.04083558171988,-0.24761711061001,-9.66760349273682,0.16308583319187,-0.16770920157433,-0.43181756138802
448,681587291,-178.55592346191406,-0.32048651576042,-177.32743835449219,0.05959033593535,-0.23759599030018,-9.66643810272217,0.08010853081942,-0.14797344803810,-0.42596474289894
449,681595624,-178.55581665039062,-0.32067233324051,-177.32698059082031,0.04932600632310,-0.25195175409317,-9.67384052276611,0.13269454240799,-0.18052911758423,-0.49012833833694
450,681603957,-178.55574035644531,-0.32057470083237,-177.32974243164062,0.06896784901619,-0.24201668798923,-9.66914176940918,0.12708503007889,-0.21564625203609,-0.42040646076202
451,681612290,-178.55526733398438,-0.32159772515297,-177.32958984375000,0.06581331044436,-0.23997788131237,-9.65316963195801,0.17644365131855,-0.08009570837021,-0.45711165666580
452,681620623,-178.55543518066406,-0.32171475887299,-177.32975769042969,0.05023441463709,-0.24153719842434,-9.67758941650391,0.09565635770559,-0.18913552165031,-0.45726537704468
453,681628956,-178.55577087402344,-0.32094940543175,-177.32971191406250,0.06471177190542,-0.23261760175228,-9.66024303436279,0.07921201735735,-0.29379525780678,-0.43731179833412
454,681637289,-178.55531311035156,-0.32145017385483,-177.32891845703125,0.03707318380475,-0.25164416432381,-9.66335487365723,0.17316503822803,-0.14295305311680,-0.37378850579262
455,681645622,-178.55513000488281,-0.32172137498856,-177.32939147949219,0.06157167255878,-0.24204505980015,-9.63341331481934,0.14140339195728,-0.16808059811592,-0.38003841042519
456,681653955,-178.55551147460938,-0.32195633649826,-177.33193969726562,0.04990538582206,-0.25132229924202,-9.66108036041260,0.07165582478046,-0.17586733400822,-0.44243466854095
457,681662288,-178.55508422851562,-0.32151380181313,-177.33219909667969,0.03395473212004,-0.24060761928558,-9.65279102325439,0.17096219956875,-0.25417006015778,-0.40278387069702
458,681670621,-178.55485534667969,-0.32125106453896,-177.33187866210938,0.05899664759636,-0.24318236112595,-9.65379142761230,0.14369586110115,-0.23712372779846,-0.52623158693314
459,681678954,-178.55490112304688,-0.32106462121010,-177.33142089843750,0.06415399909019,-0.25225242972374,-9.66502189636230,0.11616054922342,-0.22557175159454,-0.48822012543678
460,681687287,-178.55467224121094,-0.32053971290588,-177.33247375488281,0.05802368745208,-0.24526353180408,-9.68215942382812,0.14406725764275,-0.26736137270927,-0.46190148591995
461,681695620,-178.55445861816406,-0.32064384222031,-177.33287048339844,0.06173649430275,-0.26178011298180,-9.66490745544434,0.14708974957466,-0.18854637444019,-0.39002794027328
462,681703953,-178.55503845214844,-0.32008510828018,-177.33341979980469,0.06388203799725,-0.24886886775494,-9.66124439239502,0.04510666802526,-0.27147248387337,-0.45215526223183
463,681712286,-178.55574035644531,-0.31915065646172,-177.33345031738281,0.05105703324080,-0.23590113222599,-9.65939998626709,0.03794748708606,-0.31390243768692,-0.42883351445198
464,681720619,-178.55628967285156,-0.31992423534393,-177.33345031738281,0.07583450525999,-0.24093648791313,-9.67182350158691,0.05070338025689,-0.11331737786531,-0.52936941385269
465,681728952,-178.55647277832031,-0.31969401240349,-177.33291625976562,0.05750885605812,-0.24241700768471,-9.65389919281006,0.09711636602879,-0.23168073594570,-0.49942630529404
466,681737285,-178.55694580078125,-0.32082408666611,-177.33435058593750,0.05913268774748,-0.24732398986816,-9.65457820892334,0.05966837331653,-0.06856931746006,-0.44199925661087
467,681745618,-178.55583190917969,-0.32044443488121,-177.33430480957031,0.04325354099274,-0.24600799381733,-9.66934871673584,0.25469517707825,-0.24758720397949,-0.43879750370979
468,681753951,-178.55680847167969,-0.32026353478432,-177.33474731445312,0.03804597258568,-0.25284585356712,-9.64749717712402,-0.00071719859261,-0.22668597102165,-0.46195268630981
469,681762284,-178.55632019042969,-0.31970298290253,-177.33601379394531,0.06948298960924,-0.24173071980476,-9.64585876464844,0.17616188526154,-0.26472312211990,-0.28183341026306
470,681770617,-178.55534362792969,-0.32040071487427,-177.33775329589844,0.07363105565310,-0.24979859590530,-9.64732551574707,0.23622730374336,-0.12246166169643,-0.50337094068527
471,681778950,-178.55517578125000,-0.32057693600655,-177.33837890625000,0.05816691741347,-0.23220989108086,-9.64833354949951,0.13922616839409,-0.17850558459759,-0.36034104228020
472,681787283,-178.55494689941406,-0.32022595405579,-177.34059143066406,0.04339629784226,-0.24107226729393,-9.65813350677490,0.14509184658527,-0.24681876599789,-0.41008391976357
473,681795616,-178.55473327636719,-0.31941863894463,-177.34077453613281,0.06785187125206,-0.25472703576088,-9.65183925628662,0.14340129494667,-0.29720193147659,-0.41100600361824
474,681803949,-178.55491638183594,-0.32032468914986,-177.34208679199219,0.05853191018105,-0.24600075185299,-9.66053676605225,0.09557952731848,-0.09528496116400,-0.39978700876236
475,681812282,-178.55491638183594,-0.32122468948364,-177.34240722656250,0.07832363247871,-0.25347530841827,-9.68114376068115,0.12091198563576,-0.09246739000082,-0.39906975626945
476,681820615,-178.55198669433594,-0.31911051273346,-177.33976745605469,0.04751633480191,-0.23981337249279,-9.65747547149658,0.11914460361004,-0.13549931347370,-0.30908697843552
477,681828948,-178.55209350585938,-0.31979429721832,-177.34005737304688,0.05124296620488,-0.25534933805466,-9.65716743469238,0.10850188881159,-0.11891407519579,-0.40207943320274
478,681837281,-178.55213928222656,-0.32098150253296,-177.34106445312500,0.05747309327126,-0.24431250989437,-9.65841960906982,0.11024366319180,-0.06274206191301,-0.45456302165985
479,681845614,-178.55229187011719,-0.32087841629982,-177.34066772460938,0.05119289830327,-0.25163701176643,-9.65517234802246,0.10072796791792,-0.21439114212990,-0.47919109463692
480,681853947,-178.55290222167969,-0.32112517952919,-177.34243774414062,0.04220186173916,-0.24244597554207,-9.65634536743164,0.04130295291543,-0.17499645054340,-0.41797307133675
481,681862280,-178.55224609375000,-0.32160207629204,-177.34281921386719,0.05965470895171,-0.24504925310612,-9.64777565002441,0.19985504448414,-0.14208215475082,-0.38833737373352
482,681870613,-178.55206298828125,-0.32096406817436,-177.34349060058594,0.05666468665004,-0.24132950603962,-9.66392707824707,0.13620369136333,-0.27855479717255,-0.36482357978821
483,681878946,-178.55273437500000,-0.32142716646194,-177.34342956542969,0.07842376828194,-0.24604348838329,-9.65851211547852,0.04068821296096,-0.14497658610344,-0.43969392776489
484,681887279,-178.55187988281250,-0.32169103622437,-177.34378051757812,0.04000585153699,-0.24015669524670,-9.65021514892578,0.21832291781902,-0.17545752227306,-0.48787438869476
485,681895612,-178.55258178710938,-0.32156062126160,-177.34403991699219,0.05208706855774,-0.23954199254513,-9.65150260925293,0.03451517969370,-0.21490341424942,-0.40245082974434
486,681903945,-178.55245971679688,-0.32091534137726,-177.34623718261719,0.03479142859578,-0.23669472336769,-9.65073776245117,0.13128575682640,-0.28103938698769,-0.37417274713516
487,681912278,-178.55215454101562,-0.32095795869827,-177.34587097167969,0.05798094347119,-0.24115809798241,-9.66272544860840,0.15387751162052,-0.19602574408054,-0.47629669308662
488,681920611,-178.55245971679688,-0.32120260596275,-177.34625244140625,0.05896821618080,-0.24782492220402,-9.66328334808350,0.08062081038952,-0.17476594448090,-0.42276298999786
489,681928944,-178.55265808105469,-0.32089439034462,-177.34629821777344,0.05763045698404,-0.25180867314339,-9.66882705688477,0.09378651529551,-0.23721343278885,-0.42821878194809
490,681937277,-178.55256652832031,-0.32015681266785,-177.34733581542969,0.05422570183873,-0.22997105121613,-9.65393447875977,0.12854504585266,-0.29389774799347,-0.47048231959343
491,681945610,-178.55294799804688,-0.32038927078247,-177.34686279296875,0.06941118836403,-0.24852553009987,-9.65869140625000,0.07434531301260,-0.17351081967354,-0.48974415659904
492,681953943,-178.55311584472656,-0.32002979516983,-177.34783935546875,0.03792426362634,-0.25984820723534,-9.65851974487305,0.09687304496765,-0.24703650176525,-0.42272454500198
493,681962276,-178.55245971679688,-0.31906569004059,-177.34826660156250,0.07101342827082,-0.23873329162598,-9.64373493194580,0.19771628081799,-0.31623333692551,-0.37740013003349
494,681970609,-178.55363464355469,-0.31914189457893,-177.35043334960938,0.04137925803661,-0.24246668815613,-9.66273975372314,-0.02563984878361,-0.19356676936150,-0.40086275339127
495,681978942,-178.55329895019531,-0.31895512342453,-177.35076904296875,0.05496244505048,-0.23678770661354,-9.64341259002686,0.15828315913677,-0.22304876148701,-0.39100128412247
496,681987275,-178.55329895019531,-0.31815803050995,-177.35156250000000,0.05804532021284,-0.24376888573170,-9.66538619995117,0.11517439782619,-0.29984021186829,-0.45998042821884
497,681995608,-178.55305480957031,-0.31802713871002,-177.35104370117188,0.06119257211685,-0.23410539329052,-9.64510822296143,0.14942063391209,-0.21820765733719,-0.49468770623207
498,682003941,-178.55288696289062,-0.31854113936424,-177.35354614257812,0.04734466597438,-0.24404785037041,-9.66464996337891,0.13774053752422,-0.13841931521893,-0.29528093338013
499,682012274,-178.55184936523438,-0.31890425086021,-177.35331726074219,0.04748742654920,-0.25325337052345,-9.64992141723633,0.24416771531105,-0.15832158923149,-0.45941689610481
500,682020607,-178.55178833007812,-0.31968423724174,-177.35478210449219,0.05730857700109,-0.23663035035133,-9.66137313842773,0.12305077165365,-0.11097366362810,-0.45059281587601
501,682028940,-178.55155944824219,-0.31909838318825,-177.35456848144531,0.05283787101507,-0.24157266318798,-9.66987800598145,0.14693605899811,-0.27166458964348,-0.45667621493340
502,682037273,-178.55174255371094,-0.31858661770821,-177.35693359375000,0.04665788635612,-0.24588581919670,-9.64768314361572,0.09414511173964,-0.26579889655113,-0.43667143583298
503,682045606,-178.55119323730469,-0.31833100318909,-177.35740661621094,0.03751647099853,-0.24745237827301,-9.66248226165771,0.18548548221588,-0.22909373044968,-0.37350681424141
504,682053939,-178.55133056640625,-0.31882712244987,-177.35783386230469,0.06824527680874,-0.25884708762169,-9.64449310302734,0.09970340877771,-0.14305549860001,-0.37632432579994
505,682062272,-178.55174255371094,-0.31847989559174,-177.35719299316406,0.06620680540800,-0.24077929556370,-9.64901351928711,0.07008054107428,-0.24485926330090,-0.50773817300797
506,682070605,-178.55128479003906,-0.31803870201111,-177.35910034179688,0.04770214110613,-0.25399720668793,-9.65799713134766,0.17116712033749,-0.25445178151131,-0.35829189419746
507,682078938,-178.55107116699219,-0.31831681728363,-177.35897827148438,0.06649980694056,-0.24348258972168,-9.64934253692627,0.14527112245560,-0.16815744340420,-0.44909438490868
508,682087271,-178.55120849609375,-0.31927528977394,-177.36033630371094,0.06950417160988,-0.24012093245983,-9.66520786285400,0.09962657094002,-0.08818981051445,-0.44220414757729
509,682095604,-178.55133056640625,-0.32008010149002,-177.36094665527344,0.04504145309329,-0.26325324177742,-9.65211105346680,0.10268746316433,-0.10282833874226,-0.36388859152794
510,682103937,-178.55165100097656,-0.31942814588547,-177.36079406738281,0.06335988640785,-0.23775334656239,-9.63136005401611,0.07826428860426,-0.28039902448654,-0.37086850404739
511,682112270,-178.55113220214844,-0.31969681382179,-177.36106872558594,0.06018422171474,-0.25182315707207,-9.65007972717285,0.18246302008629,-0.16785010695457,-0.40055543184280
512,682120603,-178.55075073242188,-0.31877955794334,-177.36177062988281,0.04837487265468,-0.23518583178520,-9.67293262481689,0.16189476847649,-0.31472209095955,-0.44847962260246
513,682128936,-178.55081176757812,-0.31836271286011,-177.36170959472656,0.05470494180918,-0.23904800415039,-9.65779685974121,0.11194701492786,-0.25063526630402,-0.43928408622742
514,682137269,-178.55061340332031,-0.31903803348541,-177.36361694335938,0.06541974842548,-0.24749539792538,-9.65719604492188,0.13963599503040,-0.12294832617044,-0.44555959105492
515,682145602,-178.55058288574219,-0.31845673918724,-177.36340332031250,0.06333856284618,-0.24293230473995,-9.65651702880859,0.12270499020815,-0.27130597829819,-0.45575410127640
516,682153935,-178.55076599121094,-0.31863582134247,-177.36528015136719,0.06098514050245,-0.25044965744019,-9.66005039215088,0.09419634938240,-0.18214280903339,-0.40106764435768
517,682162268,-178.55120849609375,-0.31847393512726,-177.36492919921875,0.07229378074408,-0.25983417034149,-9.67098712921143,0.06800579279661,-0.22183206677437,-0.47267225384712
518,682170601,-178.55232238769531,-0.31814619898796,-177.36724853515625,0.05230874195695,-0.25219494104385,-9.64282608032227,-0.01887769065797,-0.24282294511795,-0.40065786242485
519,682178934,-178.55329895019531,-0.31762021780014,-177.36772155761719,0.05878921598196,-0.23967745900154,-9.65173149108887,0.00057632027892,-0.26203361153603,-0.37401902675629
520,682187267,-178.55335998535156,-0.31755810976028,-177.36836242675781,0.05322430282831,-0.24791753292084,-9.65823364257812,0.11107613891363,-0.21129183471203,-0.39064273238182
521,682195600,-178.55316162109375,-0.31818985939026,-177.36895751953125,0.04904731735587,-0.23763196170330,-9.64358425140381,0.14112164080143,-0.12338378280401,-0.36420881748199
522,682203933,-178.55274963378906,-0.31801593303680,-177.37156677246094,0.05959769338369,-0.25549980998039,-9.63755416870117,0.16671025753021,-0.22637861967087,-0.46669140458107
523,682212266,-178.55378723144531,-0.31787297129631,-177.37187194824219,0.04798842221498,-0.24426242709160,-9.65121650695801,-0.00404704874381,-0.21654273569584,-0.39486899971962
524,682220599,-178.55284118652344,-0.31802907586098,-177.37142944335938,0.05536300316453,-0.24443410336971,-9.63807678222656,0.22790268063545,-0.18706077337265,-0.49105048179626
525,682228932,-178.55337524414062,-0.31789916753769,-177.37203979492188,0.06278765201569,-0.22745324671268,-9.65839767456055,0.05507060140371,-0.21422463655472,-0.35904750227928
526,682237265,-178.55381774902344,-0.31806993484497,-177.37200927734375,0.05951880663633,-0.24595050513744,-9.65638828277588,0.06380505859852,-0.18594652414322,-0.51954627037048
527,682245598,-178.55313110351562,-0.31842130422592,-177.37203979492188,0.04027765989304,-0.25321063399315,-9.64030838012695,0.20149435102940,-0.15891070663929,-0.42952510714531
528,682253931,-178.55290222167969,-0.31802347302437,-177.37321472167969,0.04679407551885,-0.24952004849911,-9.65896320343018,0.14345251023769,-0.25391390919685,-0.46159410476685
529,682262264,-178.55262756347656,-0.31859594583511,-177.37258911132812,0.05635724961758,-0.24260297417641,-9.67077255249023,0.15344206988811,-0.13247682154179,-0.50834006071091
530,682270597,-178.55201721191406,-0.31935602426529,-177.37219238281250,0.04575673490763,-0.24494194984436,-9.67569351196289,0.18925076723099,-0.11444439738989,-0.46210637688637
531,682278930,-178.55258178710938,-0.31932923197746,-177.37207031250000,0.04957629740238,-0.26189398765564,-9.66595172882080,0.05149741470814,-0.20463210344315,-0.44727575778961
532,682287263,-178.55308532714844,-0.31970620155334,-177.37390136718750,0.06080641597509,-0.25503489375114,-9.64220428466797,0.05516025051475,-0.15688717365265,-0.35611471533775
533,682295596,-178.55220031738281,-0.32063606381416,-177.37368774414062,0.04784536734223,-0.24122247099876,-9.65730381011963,0.22527720034122,-0.09045665711164,-0.45935279130936
534,682303929,-178.55216979980469,-0.32055947184563,-177.37367248535156,0.04567805677652,-0.24438403546810,-9.65306949615479,0.11883723735809,-0.21121497452259,-0.36789721250534
535,682312262,-178.55238342285156,-0.32047620415688,-177.37402343750000,0.05133595317602,-0.25212341547012,-9.67194557189941,0.09227529168129,-0.20995989441872,-0.39084768295288
536,682320595,-178.55105590820312,-0.32045456767082,-177.37724304199219,0.05034886300564,-0.23600804805756,-9.66927719116211,0.27671056985855,-0.20400457084179,-0.33724978566170
537,682328928,-178.55110168457031,-0.32017228007317,-177.37690734863281,0.06409662216902,-0.24237407743931,-9.64664554595947,0.11326614767313,-0.23533080518246,-0.47049513459206
538,682337261,-178.55055236816406,-0.32089057564735,-177.37753295898438,0.04951198026538,-0.23606528341770,-9.66350555419922,0.18165615200996,-0.11909338086843,-0.50750762224197
539,682345594,-178.55021667480469,-0.32049399614334,-177.37771606445312,0.05225867033005,-0.24343985319138,-9.66451358795166,0.16104950010777,-0.24768963456154,-0.40752246975899
540,682353927,-178.55017089843750,-0.32125321030617,-177.37796020507812,0.04969080165029,-0.24919790029526,-9.67170906066895,0.12173164635897,-0.11290753632784,-0.46850994229317
541,682362260,-178.54963684082031,-0.32109621167183,-177.37800598144531,0.04999142885208,-0.23415568470955,-9.64853382110596,0.18428163230419,-0.22023120522499,-0.42606720328331
542,682370593,-178.54953002929688,-0.32125064730644,-177.37974548339844,0.06280937790871,-0.22413469851017,-9.65349864959717,0.12746922671795,-0.18447370827198,-0.39435675740242
543,682378926,-178.54963684082031,-0.32096180319786,-177.37973022460938,0.04474806413054,-0.24514196813107,-9.65714645385742,0.10656803101301,-0.23524115979671,-0.43275251984596
544,682387259,-178.54997253417969,-0.32160961627960,-177.37925720214844,0.04670091345906,-0.24200928211212,-9.65382766723633,0.07747025042772,-0.12894205749035,-0.53269922733307
545,682395592,-178.55021667480469,-0.32122057676315,-177.37902832031250,0.05791657045484,-0.25538510084152,-9.66676712036133,0.08971386402845,-0.24827879667282,-0.45803377032280
546,682403925,-178.54975891113281,-0.32169157266617,-177.37991333007812,0.04814578592777,-0.24700197577477,-9.65451431274414,0.17162817716599,-0.14359340071678,-0.35204210877419
547,682412258,-178.54988098144531,-0.32153388857841,-177.37989807128906,0.04801703616977,-0.25040671229362,-9.67168045043945,0.10426273941994,-0.21987257897854,-0.43398195505142
548,682420591,-178.54968261718750,-0.32196044921875,-177.37940979003906,0.05185827240348,-0.26188719272614,-9.66937732696533,0.13986651599407,-0.15230223536491,-0.44643047451973
549,682428924,-178.55041503906250,-0.32239428162575,-177.37980651855469,0.05893221497536,-0.25232341885567,-9.65767574310303,0.03173603862524,-0.14847290515900,-0.38586562871933
550,682437257,-178.55067443847656,-0.32321032881737,-177.38191223144531,0.04640764370561,-0.23763890564442,-9.65770435333252,0.08601260185242,-0.10556906461716,-0.48468533158302
551,682445590,-178.55029296875000,-0.32261148095131,-177.38148498535156,0.05645002797246,-0.24815325438976,-9.66453552246094,0.16445620357990,-0.27443093061447,-0.48152205348015
552,682453923,-178.55029296875000,-0.32283487915993,-177.38081359863281,0.04147933796048,-0.25170853734016,-9.65322685241699,0.11781267076731,-0.17796769738197,-0.49115294218063
553,682462256,-178.55052185058594,-0.32231354713440,-177.38101196289062,0.04838908091187,-0.24704518914223,-9.65682506561279,0.09135317057371,-0.26254591345787,-0.40670281648636
554,682470589,-178.55165100097656,-0.32211199402809,-177.38127136230469,0.05366775393486,-0.23673073947430,-9.64467906951904,-0.02008156105876,-0.22663477063179,-0.40316811203957
555,682478922,-178.55255126953125,-0.32144778966904,-177.38134765625000,0.05908248201013,-0.24469876289368,-9.67109394073486,0.01151359919459,-0.27983552217484,-0.41884398460388
556,682487255,-178.55278015136719,-0.32103031873703,-177.38238525390625,0.05607104301453,-0.24073579907417,-9.65700340270996,0.08876612782478,-0.25230020284653,-0.41287586092949
557,682495588,-178.55267333984375,-0.32149267196655,-177.38107299804688,0.06991884112358,-0.24105775356293,-9.66453552246094,0.13123452663422,-0.15007379651070,-0.59012633562088
558,682503921,-178.55342102050781,-0.32135465741158,-177.38236999511719,0.05076369643211,-0.23274612426758,-9.64975738525391,0.02893127687275,-0.21790029108524,-0.41448953747749
559,682512254,-178.55271911621094,-0.32101902365685,-177.38264465332031,0.06576344370842,-0.24344722926617,-9.65985012054443,0.20340265333652,-0.24124769866467,-0.39905697107315
560,682520587,-178.55244445800781,-0.32045483589172,-177.38323974609375,0.04534902423620,-0.25215917825699,-9.66811180114746,0.14816553890705,-0.27135720849037,-0.44028306007385
561,682528920,-178.55284118652344,-0.32042655348778,-177.38392639160156,0.04632167890668,-0.23501347005367,-9.63753986358643,0.07122036814690,-0.20163522660732,-0.34994164109230
562,682537253,-178.55313110351562,-0.32064777612686,-177.38499450683594,0.06680755317211,-0.25235944986343,-9.65497875213623,0.08179905265570,-0.17363889515400,-0.33426573872566
563,682545586,-178.55201721191406,-0.32037195563316,-177.38508605957031,0.03274571523070,-0.24642974138260,-9.64585876464844,0.25249230861664,-0.23398603498936,-0.42089310288429
564,682553919,-178.55172729492188,-0.31987553834915,-177.38647460937500,0.05142178758979,-0.24223817884922,-9.64311218261719,0.15244311094284,-0.26182869076729,-0.42412048578262
565,682562252,-178.55177307128906,-0.31957104802132,-177.38685607910156,0.02337549068034,-0.25473418831825,-9.63624572753906,0.11201106011868,-0.23671397566795,-0.38545584678650
566,682570585,-178.55210876464844,-0.31995788216591,-177.38711547851562,0.05537015572190,-0.25399029254913,-9.63903522491455,0.07606146484613,-0.15647736191750,-0.42634892463684
567,682578918,-178.55201721191406,-0.32048174738884,-177.38742065429688,0.03474850952625,-0.25712323188782,-9.65648841857910,0.13087591528893,-0.13667756319046,-0.39814767241478
568,682587251,-178.55146789550781,-0.32038423418999,-177.38766479492188,0.05286666378379,-0.23876190185547,-9.65498638153076,0.18209162354469,-0.21453204751015,-0.48202151060104
569,682595584,-178.55131530761719,-0.32070505619049,-177.38757324218750,0.04684396833181,-0.24362583458424,-9.66878414154053,0.13749720156193,-0.16384144127369,-0.44580292701721
570,682603917,-178.55198669433594,-0.32085624337196,-177.38806152343750,0.05398250743747,-0.25198751688004,-9.65963554382324,0.03474570810795,-0.18219403922558,-0.37975662946701
571,682612250,-178.55232238769531,-0.32135343551636,-177.38824462890625,0.05556328222156,-0.23658028244972,-9.65388488769531,0.07918640971184,-0.14036601781845,-0.41308078169823
572,682620583,-178.55230712890625,-0.32193878293037,-177.39053344726562,0.04491985216737,-0.25004193186760,-9.64970016479492,0.11876040697098,-0.13219505548477,-0.42260923981667
573,682628916,-178.55256652832031,-0.32235011458397,-177.39111328125000,0.06180771440268,-0.25525635480881,-9.65437793731689,0.08610225468874,-0.14920291304588,-0.36561760306358
574,682637249,-178.55250549316406,-0.32242941856384,-177.39065551757812,0.05434729903936,-0.25212341547012,-9.64856243133545,0.12506149709225,-0.19346429407597,-0.47104576230049
575,682645582,-178.55278015136719,-0.32289412617683,-177.38996887207031,0.04822434857488,-0.23629398643970,-9.67865467071533,0.08706279844046,-0.14706414937973,-0.51578104496002
576,682653915,-178.55282592773438,-0.32303613424301,-177.39057922363281,0.04498435556889,-0.23504261672497,-9.64748287200928,0.10973137617111,-0.18517810106277,-0.44731417298317
577,682662248,-178.55273437500000,-0.32311567664146,-177.39057922363281,0.05578516796231,-0.24118690192699,-9.64301967620850,0.13166996836662,-0.19159446656704,-0.43267565965652
578,682670581,-178.55368041992188,-0.32354804873466,-177.39100646972656,0.05714406818151,-0.24071438610554,-9.65290451049805,0.00075561983977,-0.14692324399948,-0.34499812126160
579,682678914,-178.55422973632812,-0.32347103953362,-177.39128112792969,0.05837446078658,-0.25525677204132,-9.65567302703857,0.05371304973960,-0.20981900393963,-0.40033766627312
580,682687247,-178.55413818359375,-0.32336640357971,-177.39321899414062,0.05215137824416,-0.23522838950157,-9.65530776977539,0.12853221595287,-0.21153515577316,-0.31637418270111
581,682695580,-178.55448913574219,-0.32353973388672,-177.39300537109375,0.04466235265136,-0.24877588450909,-9.66144466400146,0.07603586465120,-0.18137440085411,-0.45872539281845
582,682703913,-178.55448913574219,-0.32364383339882,-177.39334106445312,0.04322449490428,-0.25944772362709,-9.65012264251709,0.11730040609837,-0.18954534828663,-0.45204007625580
583,682712246,-178.55464172363281,-0.32344925403595,-177.39303588867188,0.06522677838802,-0.25598594546318,-9.67102241516113,0.09913989156485,-0.22420139610767,-0.46687063574791
584,682720579,-178.55480957031250,-0.32269984483719,-177.39495849609375,0.05681493505836,-0.25724455714226,-9.67649459838867,0.09829462319613,-0.29043978452682,-0.36533582210541
585,682728912,-178.55560302734375,-0.32259294390678,-177.39515686035156,0.05183665454388,-0.24774587154388,-9.64842700958252,0.02388527430594,-0.21211147308350,-0.40857264399529
586,682737245,-178.55593872070312,-0.32350686192513,-177.39561462402344,0.05348172038794,-0.23908369243145,-9.65432834625244,0.07429408282042,-0.09326142817736,-0.46277236938477
587,682745578,-178.55589294433594,-0.32341566681862,-177.39581298828125,0.06258036196232,-0.24718819558620,-9.66082382202148,0.12618853151798,-0.21188093721867,-0.41018635034561
588,682753911,-178.55572509765625,-0.32349765300751,-177.39739990234375,0.05733003467321,-0.24215950071812,-9.64227581024170,0.13430823385715,-0.18890498578548,-0.30721715092659
589,682762244,-178.55575561523438,-0.32406777143478,-177.39822387695312,0.04802418872714,-0.24429105222225,-9.66457080841064,0.11502072215080,-0.12853221595287,-0.33503416180611
590,682770577,-178.55526733398438,-0.32352337241173,-177.39776611328125,0.04851058125496,-0.24089343845844,-9.63809776306152,0.17329311370850,-0.26679790019989,-0.44450947642326
591,682778910,-178.55526733398438,-0.32371291518211,-177.39720153808594,0.04944760352373,-0.24943393468857,-9.66525077819824,0.12015637010336,-0.18092612922192,-0.50256407260895
592,682787243,-178.55447387695312,-0.32311677932739,-177.39736938476562,0.04467665776610,-0.24313943088055,-9.65434932708740,0.21226517856121,-0.27411076426506,-0.46009573340416
593,682795576,-178.55474853515625,-0.32219061255455,-177.39746093750000,0.05275230854750,-0.24728846549988,-9.66239738464355,0.08556434512138,-0.31180205941200,-0.41753759980202
594,682803909,-178.55459594726562,-0.32279303669930,-177.39743041992188,0.07143544405699,-0.23747438192368,-9.66711044311523,0.13451313972473,-0.12830170989037,-0.42821878194809
595,682812242,-178.55416870117188,-0.32245039939880,-177.39739990234375,0.03822479397058,-0.23582208156586,-9.65640926361084,0.17156414687634,-0.24202890694141,-0.43521150946617
596,682820575,-178.55377197265625,-0.32235944271088,-177.39790344238281,0.05548460409045,-0.23128718137741,-9.65899848937988,0.16381585597992,-0.21085639297962,-0.36587375402451
597,682828908,-178.55433654785156,-0.32218134403229,-177.39857482910156,0.04660077020526,-0.24378319084644,-9.65713882446289,0.04834687337279,-0.21989822387695,-0.35094064474106
598,682837241,-178.55397033691406,-0.32294335961342,-177.39900207519531,0.05016269534826,-0.23990625143051,-9.66370582580566,0.16294494271278,-0.11062787473202,-0.45221930742264
599,682845574,-178.55537414550781,-0.32368487119675,-177.39939880371094,0.06369606405497,-0.23611535131931,-9.64255428314209,-0.05104916915298,-0.11106331646442,-0.38823497295380
600,682853907,-178.55551147460938,-0.32345867156982,-177.39907836914062,0.04946203157306,-0.24225990474224,-9.66934871673584,0.09957534819841,-0.22924743592739,-0.48395541310310
601,682862240,-178.55705261230469,-0.32389008998871,-177.39926147460938,0.03309620544314,-0.25318202376366,-9.65977859497070,-0.06388189643621,-0.14835764467716,-0.41233795881271
602,682870573,-178.55665588378906,-0.32462695240974,-177.40020751953125,0.05027733370662,-0.25008484721184,-9.66049385070801,0.16450743377209,-0.11413702368736,-0.44914561510086
603,682878906,-178.55665588378906,-0.32504186034203,-177.40025329589844,0.04607146233320,-0.24481320381165,-9.66112995147705,0.11822248995304,-0.15056046843529,-0.42745035886765
604,682887239,-178.55653381347656,-0.32547375559807,-177.40093994140625,0.05383944883943,-0.24786031246185,-9.65763950347900,0.13163156807423,-0.14998415112495,-0.45456302165985
605,682895572,-178.55708312988281,-0.32599028944969,-177.40071105957031,0.04526324942708,-0.23710258305073,-9.68915557861328,0.05159988254309,-0.13977688550949,-0.46077448129654
606,682903905,-178.55787658691406,-0.32566446065903,-177.40042114257812,0.04187274351716,-0.24968428909779,-9.66030025482178,0.02250210940838,-0.24033838510513,-0.45921203494072
607,682912238,-178.55746459960938,-0.32586339116096,-177.40042114257812,0.06549143046141,-0.24751697480679,-9.63624572753906,0.16786287724972,-0.17725048959255,-0.43183037638664
608,682920571,-178.55770874023438,-0.32548558712006,-177.40022277832031,0.06089215353131,-0.24004225432873,-9.66325473785400,0.08889421075583,-0.24661387503147,-0.48144519329071
609,682928904,-178.55778503417969,-0.32451999187469,-177.39979553222656,0.06153590977192,-0.25466981530190,-9.66778278350830,0.10935997217894,-0.31761649250984,-0.48044618964195
610,682937237,-178.55766296386719,-0.32523360848427,-177.39981079101562,0.06145722791553,-0.23691646754742,-9.66348361968994,0.13174681365490,-0.11429071426392,-0.36185228824615
611,682945570,-178.55821228027344,-0.32530859112740,-177.39981079101562,0.06720817089081,-0.24056465923786,-9.65189647674561,0.05254760012031,-0.19167131185532,-0.43364897370338
612,682953903,-178.55812072753906,-0.32564949989319,-177.39994812011719,0.06386773288250,-0.24964137375355,-9.65706729888916,0.12741801142693,-0.16085737943649,-0.45739337801933
613,682962236,-178.55761718750000,-0.32522979378700,-177.39918518066406,0.04685852676630,-0.23449912667274,-9.64451408386230,0.18054193258286,-0.25368338823318,-0.52301710844040
614,682970569,-178.55834960937500,-0.32517412304878,-177.40057373046875,0.05777351185679,-0.24082191288471,-9.66854763031006,0.02959724701941,-0.20752651989460,-0.40324488282204
615,682978902,-178.55876159667969,-0.32577356696129,-177.40057373046875,0.05418278649449,-0.23725980520248,-9.66375541687012,0.06883825361729,-0.12832731008530,-0.43387949466705
616,682987235,-178.55934143066406,-0.32640647888184,-177.40008544921875,0.05874630063772,-0.25324639678001,-9.66743183135986,0.04675878584385,-0.12494623661041,-0.43349531292915
617,682995568,-178.56085205078125,-0.32620906829834,-177.39979553222656,0.06283772736788,-0.24305360019207,-9.63789749145508,-0.06044958904386,-0.22522597014904,-0.46607652306557
618,683003901,-178.56053161621094,-0.32588079571724,-177.40092468261719,0.05754462257028,-0.25039955973625,-9.65957069396973,0.15485085546970,-0.23967237770557,-0.37765625119209
619,683012234,-178.56033325195312,-0.32632553577423,-177.40142822265625,0.05244464427233,-0.24459145963192,-9.65620231628418,0.14199252426624,-0.14561693370342,-0.37401905655861
620,683020567,-178.56007385253906,-0.32675880193710,-177.40092468261719,0.04655764251947,-0.25075700879097,-9.66057205200195,0.14852413535118,-0.15271206200123,-0.54893869161606
621,683028900,-178.55995178222656,-0.32682770490646,-177.40093994140625,0.06940403580666,-0.24063594639301,-9.66633033752441,0.13206699490547,-0.19162008166313,-0.43098509311676
622,683037233,-178.55947875976562,-0.32679647207260,-177.40115356445312,0.06051326543093,-0.23873351514339,-9.65638828277588,0.17444576323032,-0.20547741651535,-0.46981632709503
623,683045566,-178.55915832519531,-0.32752257585526,-177.40148925781250,0.05128622055054,-0.23467068374157,-9.67282485961914,0.15856492519379,-0.11252333968878,-0.39448487758636
624,683053899,-178.55990600585938,-0.32729747891426,-177.40226745605469,0.03966253995895,-0.24230282008648,-9.67381286621094,0.02583195827901,-0.22911934554577,-0.40893128514290
625,683062232,-178.55882263183594,-0.32677477598190,-177.40191650390625,0.05100692436099,-0.24301783740520,-9.67502880096436,0.25003337860107,-0.26405715942383,-0.47404265403748
626,683070565,-178.56008911132812,-0.32663086056709,-177.40231323242188,0.05729427188635,-0.24869003891945,-9.65801143646240,-0.03514272719622,-0.21690133213997,-0.36907547712326
627,683078898,-178.56065368652344,-0.32713410258293,-177.40197753906250,0.04828168824315,-0.24296776950359,-9.65361309051514,0.05110039934516,-0.14187723398209,-0.47368404269218
628,683087231,-178.56072998046875,-0.32715749740601,-177.40298461914062,0.03966945409775,-0.25224465131760,-9.66304779052734,0.10618381202221,-0.19620503485203,-0.37875768542290
629,683095564,-178.56039428710938,-0.32717585563660,-177.40357971191406,0.05355364084244,-0.25120103359222,-9.68002128601074,0.15892350673676,-0.19758820533752,-0.36236459016800
630,683103897,-178.55990600585938,-0.32711371779442,-177.40460205078125,0.03067120164633,-0.24651536345482,-9.65110969543457,0.17741698026657,-0.20768021047115,-0.38872158527374
631,683112230,-178.56048583984375,-0.32755482196808,-177.40415954589844,0.05715121701360,-0.24768865108490,-9.65634536743164,0.04752721637487,-0.14846011996269,-0.48623502254486
632,683120563,-178.56019592285156,-0.32738804817200,-177.40405273437500,0.06943283975124,-0.25479882955551,-9.65989303588867,0.15285292267799,-0.22235716879368,-0.48969292640686
633,683128896,-178.56018066406250,-0.32630148530006,-177.40341186523438,0.05212260037661,-0.24242374300957,-9.65874862670898,0.12193656712770,-0.33339488506317,-0.50585556030273
634,683137229,-178.56001281738281,-0.32623797655106,-177.40498352050781,0.06691484898329,-0.24867573380470,-9.66109466552734,0.13564017415047,-0.20642511546612,-0.37463378906250
635,683145562,-178.56069946289062,-0.32684907317162,-177.40487670898438,0.05109271779656,-0.22977781295776,-9.67150211334229,0.03748643398285,-0.12709784507751,-0.44694283604622
636,683153895,-178.56074523925781,-0.32617899775505,-177.40623474121094,0.04285256192088,-0.25335338711739,-9.65875530242920,0.10975699126720,-0.28115463256836,-0.39700779318810
637,683162228,-178.56098937988281,-0.32545983791351,-177.40617370605469,0.03932632878423,-0.23603665828705,-9.65165328979492,0.09189107269049,-0.28754541277885,-0.43569818139076
638,683170561,-178.56161499023438,-0.32449379563332,-177.40628051757812,0.06690769642591,-0.23993496596813,-9.66299724578857,0.04009909182787,-0.31651511788368,-0.44179436564445
639,683178894,-178.56184387207031,-0.32370069622993,-177.40660095214844,0.04662223160267,-0.25794583559036,-9.66399860382080,0.09063597023487,-0.29448685050011,-0.39238446950912
640,683187227,-178.56176757812500,-0.32358846068382,-177.40711975097656,0.05940422788262,-0.24278154969215,-9.65373420715332,0.12609888613224,-0.21350747346878,-0.41007110476494
641,683195560,-178.56161499023438,-0.32218328118324,-177.40679931640625,0.05720843747258,-0.25351107120514,-9.67442035675049,0.13790702819824,-0.37047150731087,-0.46657609939575
642,683203893,-178.56089782714844,-0.32071441411972,-177.40599060058594,0.05598530173302,-0.24010662734509,-9.65294742584229,0.20267263054848,-0.37780994176865,-0.43446868658066
643,683212226,-178.56126403808594,-0.32042428851128,-177.40631103515625,0.05755892768502,-0.25189450383186,-9.66524314880371,0.07429408282042,-0.23513865470886,-0.39143672585487
644,683220559,-178.56108093261719,-0.32097747921944,-177.40686035156250,0.06104951351881,-0.25471988320351,-9.65495014190674,0.13961039483547,-0.13193891942501,-0.35824066400528
645,683228892,-178.56079101562500,-0.32038438320160,-177.40643310546875,0.05921838805079,-0.24119386076927,-9.63700389862061,0.15410803258419,-0.27327826619148,-0.48070231080055
646,683237225,-178.56080627441406,-0.32025244832039,-177.40780639648438,0.05261607840657,-0.23388324677944,-9.64836978912354,0.11431632936001,-0.21542851626873,-0.38730004429817
647,683245558,-178.56045532226562,-0.32044965028763,-177.40730285644531,0.06559156626463,-0.24522806704044,-9.65037250518799,0.16224054992199,-0.17869770526886,-0.49477735161781
648,683253891,-178.56080627441406,-0.32058969140053,-177.40794372558594,0.05614274367690,-0.24160891771317,-9.67433452606201,0.07250109314919,-0.18403828144073,-0.44299817085266
649,683262224,-178.56044006347656,-0.32057335972786,-177.40873718261719,0.06844585388899,-0.25806775689125,-9.64218235015869,0.16381584107876,-0.19997033476830,-0.33593067526817
650,683270557,-178.55996704101562,-0.32080343365669,-177.40901184082031,0.04900377243757,-0.25671520829201,-9.66924858093262,0.17091098427773,-0.17263993620872,-0.38662123680115
651,683278890,-178.55912780761719,-0.32040324807167,-177.40940856933594,0.05212969332933,-0.23990610241890,-9.66009330749512,0.22001346945763,-0.24727982282639,-0.38265106081963
652,683287223,-178.55967712402344,-0.32106044888496,-177.41017150878906,0.04641468450427,-0.22828988730907,-9.66017913818359,0.05236830934882,-0.12220551818609,-0.42450475692749
653,683295556,-178.55972290039062,-0.32033753395081,-177.41062927246094,0.05309566482902,-0.24271056056023,-9.65867042541504,0.11166524887085,-0.28613659739494,-0.37555590271950
654,683303889,-178.55981445312500,-0.32104173302650,-177.41073608398438,0.04944057762623,-0.24059315025806,-9.64445018768311,0.10643994808197,-0.11808162182570,-0.46346393227577
655,683312222,-178.55958557128906,-0.32037585973740,-177.41076660156250,0.04813846945763,-0.24331796169281,-9.65938472747803,0.14580902457237,-0.28029656410217,-0.42668193578720
656,683320555,-178.55905151367188,-0.32082045078278,-177.41093444824219,0.07534089684486,-0.25173714756966,-9.68026447296143,0.18059313297272,-0.14694885909557,-0.44983717799187
657,683328888,-178.55894470214844,-0.32042530179024,-177.41062927246094,0.07065578550100,-0.23378351330757,-9.64246177673340,0.13186207413673,-0.24870140850544,-0.46793365478516
658,683337221,-178.55928039550781,-0.32040637731552,-177.41220092773438,0.07089897990227,-0.26051369309425,-9.65294075012207,0.07595901191235,-0.20386368036270,-0.43577495217323
659,683345554,-178.55993652343750,-0.32045036554337,-177.41226196289062,0.04848912358284,-0.23889780044556,-9.66150951385498,0.04079066962004,-0.19640995562077,-0.42504259943962
660,683353887,-178.56045532226562,-0.32041361927986,-177.41218566894531,0.04775238037109,-0.24780309200287,-9.65028667449951,0.05539078637958,-0.20762899518013,-0.52032768726349
661,683362220,-178.56086730957031,-0.32024368643761,-177.41262817382812,0.05727294832468,-0.26042112708092,-9.66277599334717,0.06744227558374,-0.21980854868889,-0.37933400273323
662,683370553,-178.56056213378906,-0.32021796703339,-177.41264343261719,0.04352524504066,-0.24123701453209,-9.65857696533203,0.15527348220348,-0.20525965094566,-0.47561788558960
663,683378886,-178.56010437011719,-0.31969410181046,-177.41276550292969,0.05386824905872,-0.23747465014458,-9.65559387207031,0.17310099303722,-0.26417243480682,-0.41647464036942
664,683387219,-178.55998229980469,-0.31994384527206,-177.41365051269531,0.04913302510977,-0.25014945864677,-9.66050148010254,0.13146506249905,-0.17036026716232,-0.42348012328148
665,683395552,-178.55969238281250,-0.31974545121193,-177.41395568847656,0.03970543295145,-0.24462722241879,-9.65786838531494,0.15251995623112,-0.22394526004791,-0.39456164836884
666,683403885,-178.55979919433594,-0.31973367929459,-177.41368103027344,0.04823175072670,-0.24419829249382,-9.65640258789062,0.10583801567554,-0.20290313661098,-0.48214951157570
667,683412218,-178.55967712402344,-0.31951293349266,-177.41313171386719,0.05790941789746,-0.24301068484783,-9.66659545898438,0.13377033174038,-0.22886317968369,-0.49555855989456
668,683420551,-178.55964660644531,-0.32039654254913,-177.41366577148438,0.03321065008640,-0.24261727929115,-9.65248298645020,0.11960567533970,-0.09349195659161,-0.39768660068512
669,683428884,-178.55996704101562,-0.31980776786804,-177.41342163085938,0.03289592638612,-0.24454139173031,-9.65058708190918,0.08001887053251,-0.27354720234871,-0.45960897207260
670,683437217,-178.56036376953125,-0.31872561573982,-177.41343688964844,0.05500543862581,-0.23288978636265,-9.66758918762207,0.06855649501085,-0.33083343505859,-0.44668662548065
671,683445550,-178.56024169921875,-0.31899321079254,-177.41435241699219,0.06829534471035,-0.24514223635197,-9.68112277984619,0.13307873904705,-0.16567285358906,-0.32176595926285
672,683453883,-178.56118774414062,-0.31908807158470,-177.41471862792969,0.05017719417810,-0.24195206165314,-9.64778995513916,0.00300967250951,-0.18880252540112,-0.39151358604431
673,683462216,-178.56118774414062,-0.31883925199509,-177.41445922851562,0.04582826420665,-0.23743146657944,-9.66172409057617,0.11983620375395,-0.23073305189610,-0.46182468533516
