sep=,
DeviceTag:,ydt
FirmwareVersion:,1.6.0
AppVersion:,2021.0
StartTime: ,2021-08-30_17:05:05_000 GMT+8
© Xsens Technologies B. V. 2005-2021

PacketCounter,SampleTimeFine,Euler_X,Euler_Y,Euler_Z,Acc_X,Acc_Y,Acc_Z,Gyr_X,Gyr_Y,Gyr_Z
0,2973970240,-139.38354492187500,78.24951171875000,-70.14126586914062,0.00000000000000,0.00000000000000,0.00000000000000,0.00000000000000,0.00000000000000,0.00000000000000
1,2973978573,-139.29133605957031,78.26021575927734,-70.10064697265625,-9.56491851806641,-0.83296597003937,-1.51974713802338,5.61168241500854,-0.80638742446899,-0.09997236728668
2,2973986906,-140.88825988769531,78.37374877929688,-71.75379180908203,-9.59061813354492,-0.74575906991959,-1.45170676708221,3.87790536880493,-0.67155402898788,-0.33552086353302
3,2973995239,-140.80781555175781,78.38230895996094,-71.69510650634766,-9.63629627227783,-0.79981899261475,-1.34676992893219,2.07005286216736,-0.88169318437576,-0.63454139232635
4,2974003572,-143.31182861328125,78.80949401855469,-74.52553558349609,-9.67052078247070,-0.82955801486969,-1.46951580047607,0.03584712371230,-0.22619932889938,-1.27197742462158
5,2974011905,-143.23886108398438,78.80160522460938,-74.45997619628906,-9.57220935821533,-0.76150101423264,-1.57234668731689,0.35497492551804,0.65545552968979,-1.97439658641815
6,2974020238,-144.95970153808594,79.13015747070312,-76.56197357177734,-9.51877117156982,-0.71135765314102,-1.62136352062225,0.96277505159378,1.32278311252594,-2.44131827354431
7,2974028571,-144.88354492187500,79.11042022705078,-76.49797821044922,-9.50671863555908,-0.65235334634781,-1.54639303684235,0.91146975755692,1.91885197162628,-2.73308968544006
8,2974036904,-146.34031677246094,79.27209472656250,-78.28010559082031,-9.53235626220703,-0.72630941867828,-1.52747094631195,0.10948805510998,1.94794988632202,-2.67379331588745
9,2974045237,-146.27803039550781,79.25276184082031,-78.20623016357422,-9.55054664611816,-0.97970956563950,-1.71142089366913,-1.92078578472137,1.82185077667236,-2.84528017044067
10,2974053570,-147.43362426757812,79.35741424560547,-79.56830596923828,-9.66503906250000,-1.12735474109650,-1.95782852172852,-4.38935756683350,1.59593331813812,-2.97383832931519
11,2974061903,-147.33824157714844,79.34414672851562,-79.45323181152344,-9.75029659271240,-1.17967712879181,-1.87177383899689,-2.80555295944214,0.78122138977051,-3.19350600242615
12,2974070236,-147.97994995117188,79.32498931884766,-80.27413177490234,-9.67107009887695,-1.28564286231995,-1.80847990512848,-1.54231011867523,-0.17686630785465,-3.01576900482178
13,2974078569,-147.84587097167969,79.32762908935547,-80.14045715332031,-9.66343212127686,-1.42188298702240,-1.64088118076324,-0.36000806093216,-1.03440523147583,-2.53294038772583
14,2974086902,-148.07557678222656,79.25379943847656,-80.52329254150391,-9.65307903289795,-1.39102983474731,-1.56514489650726,1.30897700786591,-1.31895387172699,-2.17961788177490
15,2974095235,-147.94660949707031,79.26032257080078,-80.43424987792969,-9.63490486145020,-1.36859190464020,-1.41735255718231,4.29769706726074,-0.90971517562866,-1.45650219917297
16,2974103568,-147.79371643066406,79.17614746093750,-80.44509124755859,-9.68904972076416,-1.28136289119720,-1.38629519939423,4.78933668136597,-0.93561118841171,-1.71894562244415
17,2974111901,-147.62675476074219,79.18171691894531,-80.31483459472656,-9.69958496093750,-1.03161311149597,-1.35196280479431,3.99821567535400,-1.32261669635773,-2.30720233917236
18,2974120234,-147.25794982910156,79.11559295654297,-80.07209777832031,-9.53882217407227,-0.84883314371109,-1.30796468257904,3.02957487106323,-0.59190654754639,-2.67347288131714
19,2974128567,-147.11787414550781,79.10648345947266,-79.95133972167969,-9.54492759704590,-0.81338840723038,-1.31437039375305,1.89401912689209,0.24479529261589,-3.07639789581299
20,2974136900,-146.81243896484375,79.06957244873047,-79.74906158447266,-9.58687210083008,-0.77932500839233,-1.33480727672577,0.02557581476867,0.48458293080330,-3.43176984786987
21,2974145233,-146.73725891113281,79.05323028564453,-79.65020751953125,-9.51992702484131,-0.91800242662430,-1.54100787639618,-3.31046080589294,1.21205294132233,-3.13820505142212
22,2974153566,-146.61267089843750,79.04222869873047,-79.57621002197266,-9.51265144348145,-1.16861057281494,-1.82685744762421,-7.28297376632690,1.42549633979797,-2.85357975959778
23,2974161899,-146.58964538574219,79.02667999267578,-79.50212097167969,-9.61953830718994,-1.42134284973145,-1.83772099018097,-6.65014743804932,1.43738126754761,-2.62169384956360
24,2974170232,-146.45271301269531,79.01629638671875,-79.44527435302734,-9.75661182403564,-1.57645928859711,-1.68868374824524,-2.78175711631775,0.07580532878637,-2.45287036895752
25,2974178565,-146.29081726074219,79.02293395996094,-79.30450439453125,-9.77655696868896,-1.61144447326660,-1.70004415512085,2.16020250320435,-1.63550758361816,-2.42058396339417
26,2974186898,-145.94950866699219,79.00711059570312,-79.10211181640625,-9.72053432464600,-1.29625272750854,-1.55158889293671,6.37378168106079,-2.35802078247070,-2.62241077423096
27,2974195231,-145.71205139160156,79.01875305175781,-78.92878723144531,-9.61250305175781,-0.93439912796021,-1.53582477569580,7.38815689086914,-2.56969666481018,-2.67976117134094
28,2974203564,-145.35679626464844,78.99228668212891,-78.68112945556641,-9.47871875762939,-0.67197513580322,-1.61724317073822,3.77662730216980,-1.87703692913055,-2.71728610992432
29,2974211897,-145.24040222167969,78.99427032470703,-78.56697082519531,-9.40909194946289,-0.75208896398544,-1.63077747821808,-0.17289605736732,-0.87972086668015,-2.19741964340210
30,2974220230,-145.10856628417969,78.97073364257812,-78.51418304443359,-9.49345207214355,-1.00924706459045,-1.64191198348999,-3.48263931274414,-0.03575746715069,-1.88310730457306
31,2974228563,-145.05296325683594,78.96984100341797,-78.43333435058594,-9.68732929229736,-1.29684376716614,-1.60166442394257,-3.53847837448120,-0.16270162165165,-1.76761269569397
32,2974236896,-144.91896057128906,78.95530700683594,-78.33105468750000,-9.69493675231934,-1.38816499710083,-1.58652043342590,-2.26601457595825,-1.04826259613037,-2.24808454513550
33,2974245229,-144.75164794921875,78.96170806884766,-78.17516326904297,-9.66282844543457,-1.31032919883728,-1.33681249618530,1.02811694145203,-1.87611448764801,-2.67135953903198
34,2974253562,-144.50558471679688,78.94868469238281,-78.06356811523438,-9.66222476959229,-1.16646027565002,-1.28299677371979,3.59576511383057,-2.07242226600647,-2.89087390899658
35,2974261895,-144.28800964355469,78.95742797851562,-77.87471771240234,-9.63052368164062,-1.02826249599457,-1.30193841457367,3.17776584625244,-2.57505011558533,-3.10142254829407
36,2974270228,-144.05268859863281,78.94873046875000,-77.75366973876953,-9.55953788757324,-0.93610686063766,-1.47933804988861,0.43250915408134,-1.75985169410706,-2.80742263793945
37,2974278561,-143.97697448730469,78.95027923583984,-77.65579223632812,-9.48085784912109,-1.19984519481659,-1.61439692974091,-3.13223648071289,-0.66348546743393,-1.89360892772675
38,2974286894,-143.88583374023438,78.94787597656250,-77.60897064208984,-9.61111259460449,-1.49785530567169,-1.67141973972321,-4.81375980377197,-0.51356548070908,-1.12846076488495
39,2974295227,-143.84323120117188,78.96153259277344,-77.54679870605469,-9.81734085083008,-1.67642140388489,-1.51845324039459,-2.89758491516113,-1.35491621494293,-0.36879378557205
40,2974303560,-143.68923950195312,78.97302246093750,-77.48130035400391,-9.86441135406494,-1.73595678806305,-1.50503063201904,-0.05194566771388,-2.59802651405334,-0.15983282029629
41,2974311893,-143.53425598144531,79.00227355957031,-77.34893035888672,-9.80453777313232,-1.51469266414642,-1.43892920017242,2.31274747848511,-3.81590628623962,-0.54043477773666
42,2974320226,-143.21554565429688,79.02136993408203,-77.14430236816406,-9.74040317535400,-1.21140074729919,-1.18302702903748,4.65752553939819,-4.91268205642700,-0.81071615219116
43,2974328559,-143.00019836425781,79.05661010742188,-76.95132446289062,-9.58611488342285,-1.01512336730957,-1.29687988758087,2.41269445419312,-5.21708202362061,-1.16316807270050
44,2974336892,-142.70130920410156,79.07637786865234,-76.72178649902344,-9.51332759857178,-0.95245420932770,-1.41044521331787,-1.88697504997253,-4.99626159667969,-1.28130090236664
45,2974345225,-142.56575012207031,79.11000823974609,-76.54515838623047,-9.50969219207764,-1.07545983791351,-1.32506561279297,-5.23490905761719,-4.82636213302612,-0.92190748453140
46,2974353558,-142.35813903808594,79.13851165771484,-76.37396240234375,-9.66713905334473,-1.36413967609406,-1.31038272380829,-6.93036651611328,-4.95294761657715,-0.40473052859306
47,2974361891,-142.24433898925781,79.18153381347656,-76.21524810791016,-9.85046005249023,-1.65924096107483,-1.18095409870148,-5.74284076690674,-5.47063779830933,0.14683362841606
48,2974370224,-141.98246765136719,79.22316741943359,-75.98174285888672,-9.94246864318848,-1.83319163322449,-1.13146591186523,-3.60589504241943,-6.30811977386475,0.06653297692537
49,2974378557,-141.75323486328125,79.27411651611328,-75.74880218505859,-9.92910099029541,-1.72458481788635,-1.05999541282654,-0.64998680353165,-7.21099615097046,-0.51038920879364
50,2974386890,-141.34078979492188,79.31879425048828,-75.39841461181641,-9.85828971862793,-1.36907410621643,-1.03757715225220,1.28324770927429,-7.64240550994873,-0.77981275320053
51,2974395223,-141.08035278320312,79.36851501464844,-75.14846801757812,-9.72191524505615,-1.06922316551208,-1.04271531105042,1.08188128471375,-7.32198333740234,-0.76079410314560
52,2974403556,-140.72868347167969,79.40876007080078,-74.83344268798828,-9.50485038757324,-1.09986090660095,-1.15155673027039,-2.80265831947327,-6.29477500915527,-0.24789457023144
53,2974411889,-140.63023376464844,79.45333099365234,-74.66619110107422,-9.55019283294678,-1.12954664230347,-1.49916911125183,-8.60484790802002,-5.66077184677124,0.36570727825165
54,2974420222,-140.44488525390625,79.49195098876953,-74.40178680419922,-9.59055614471436,-1.35360920429230,-1.55276310443878,-11.03054141998291,-4.44942378997803,1.02716946601868
55,2974428555,-140.42967224121094,79.53168487548828,-74.30144500732422,-9.55807304382324,-1.69013392925262,-1.45806944370270,-10.70511054992676,-4.25383281707764,1.16676688194275
56,2974436888,-140.24453735351562,79.56987762451172,-74.09196472167969,-9.49296569824219,-2.18140959739685,-1.40868461132050,-8.42761993408203,-4.58046531677246,1.20439410209656
57,2974445221,-140.14482116699219,79.60971832275391,-73.95017242431641,-9.87075710296631,-2.03471517562866,-1.53281688690186,-5.46707677841187,-4.82731056213379,0.52116000652313
58,2974453554,-139.73957824707031,79.64966583251953,-73.57852935791016,-9.81374263763428,-1.44141745567322,-1.38841688632965,-1.02103471755981,-7.25028944015503,-0.43851572275162
59,2974461887,-139.45283508300781,79.68977355957031,-73.28649902343750,-9.57912921905518,-0.99169075489044,-1.41816127300262,-0.75846314430237,-6.91999340057373,-1.84361028671265
60,2974470220,-139.03215026855469,79.70692443847656,-72.78900909423828,-9.44152641296387,-0.68986266851425,-1.49707615375519,-7.33455944061279,-6.32809925079346,-2.75911450386047
61,2974478553,-138.85273742675781,79.72679901123047,-72.48178100585938,-9.47280883789062,-0.46665066480637,-1.52067768573761,-15.44292831420898,-5.30365896224976,-3.57269978523254
62,2974486886,-138.61940002441406,79.73049163818359,-72.09654235839844,-9.34922504425049,-0.40975818037987,-1.66416716575623,-22.31938171386719,-4.61020565032959,-3.51289129257202
63,2974495219,-138.62953186035156,79.74094390869141,-71.88899993896484,-9.34498977661133,-0.59947705268860,-1.74637854099274,-26.41241264343262,-3.05572843551636,-2.67586922645569
64,2974503552,-138.64198303222656,79.73854827880859,-71.71023559570312,-9.37773227691650,-0.88771069049835,-1.86414539813995,-29.38500404357910,-1.84553253650665,-2.03297734260559
65,2974511885,-138.75952148437500,79.74203491210938,-71.60992431640625,-9.58757400512695,-1.22473073005676,-1.73967826366425,-26.63958740234375,-0.91599112749100,-1.50355637073517
66,2974520218,-138.80255126953125,79.74092102050781,-71.56105041503906,-9.67653274536133,-1.46548652648926,-1.70919370651245,-21.87372207641602,-1.26283371448517,-1.06050670146942
67,2974528551,-138.82330322265625,79.75595092773438,-71.45697784423828,-9.61897659301758,-1.53135764598846,-1.76905131340027,-15.46236896514893,-2.00674748420715,-0.65198481082916
68,2974536884,-138.74827575683594,79.75943756103516,-71.24292755126953,-9.55018234252930,-1.47970080375671,-1.79184901714325,-9.13490867614746,-2.11601781845093,-0.67347520589828
69,2974545217,-138.67626953125000,79.77618408203125,-71.14746856689453,-9.61991119384766,-1.30280005931854,-1.73985123634338,-3.31358551979065,-2.03512787818909,-0.37250781059265
70,2974553550,-138.51240539550781,79.78511810302734,-70.87322998046875,-9.64110469818115,-1.11581659317017,-1.67090606689453,0.08684506267309,-3.15767168998718,-0.16820867359638
71,2974561883,-138.38267517089844,79.81201934814453,-70.75036621093750,-9.49608230590820,-0.90951538085938,-1.63148343563080,0.37795084714890,-3.32936406135559,0.01971015520394
72,2974570216,-138.27333068847656,79.81882476806641,-70.54891204833984,-9.39110851287842,-0.77450531721115,-1.54457473754883,-2.07360053062439,-2.76536440849304,0.12250008434057
73,2974578549,-138.23161315917969,79.83887481689453,-70.46536254882812,-9.43774127960205,-0.78269708156586,-1.35136008262634,-5.53060007095337,-2.14946985244751,0.11268982291222
74,2974586882,-138.21965026855469,79.83902740478516,-70.51460266113281,-9.51047706604004,-0.92080676555634,-1.18372440338135,-8.30700302124023,-1.83723211288452,-0.25721815228462
75,2974595215,-138.19842529296875,79.84815216064453,-70.42027282714844,-9.62161064147949,-1.11402904987335,-1.06263947486877,-9.25140190124512,-1.32259118556976,-0.92541688680649
76,2974603548,-138.13525390625000,79.83686065673828,-70.31737518310547,-9.63873672485352,-1.23783493041992,-0.96721184253693,-8.37408733367920,-1.37732863426208,-2.22380232810974
77,2974611881,-137.99876403808594,79.83171081542969,-70.12248992919922,-9.66332149505615,-1.22869729995728,-0.95401924848557,-7.29739284515381,-1.48285925388336,-3.64206218719482
78,2974620214,-137.81903076171875,79.81276702880859,-69.75339508056641,-9.66720485687256,-1.12300419807434,-1.02939295768738,-7.83680391311646,-1.89204668998718,-4.56578922271729
79,2974628547,-137.63432312011719,79.80572509765625,-69.49637603759766,-9.64340496063232,-1.07260656356812,-1.15201807022095,-8.83686065673828,-2.22644066810608,-4.76696300506592
80,2974636880,-137.45599365234375,79.78775787353516,-69.20647430419922,-9.68522167205811,-1.07701408863068,-1.21727705001831,-9.68715190887451,-1.99086678028107,-4.85013294219971
81,2974645213,-137.29591369628906,79.77776336669922,-68.96118927001953,-9.69502067565918,-0.99094784259796,-1.31611406803131,-10.39615249633789,-1.83080315589905,-4.81470775604248
82,2974653546,-137.10481262207031,79.76653289794922,-68.57817840576172,-9.74853324890137,-0.85415035486221,-1.29622685909271,-9.72823619842529,-2.65327620506287,-4.57921075820923
83,2974661879,-136.88165283203125,79.77053070068359,-68.28630065917969,-9.68513679504395,-0.91040766239166,-1.35146522521973,-8.32191276550293,-3.77231144905090,-4.38139200210571
84,2974670212,-136.67546081542969,79.76403808593750,-67.93379211425781,-9.58964729309082,-1.04231905937195,-1.33908355236053,-8.62564659118652,-3.19401860237122,-4.54099464416504
85,2974678545,-136.48530578613281,79.75611877441406,-67.66886901855469,-9.58772659301758,-0.94044399261475,-1.52381491661072,-9.08667659759521,-2.37008547782898,-4.91462945938110
86,2974686878,-136.29544067382812,79.73728179931641,-67.24220275878906,-9.67727851867676,-0.74731725454330,-1.54644656181335,-8.58765983581543,-1.88028979301453,-5.39656114578247
87,2974695211,-136.05416870117188,79.72344970703125,-66.93213653564453,-9.63906288146973,-0.64704203605652,-1.47801005840302,-8.27383422851562,-2.57914876937866,-6.08673715591431
88,2974703544,-135.82606506347656,79.70166778564453,-66.73841857910156,-9.50955677032471,-0.50219905376434,-1.56571304798126,-9.57660007476807,-2.68170809745789,-6.82027721405029
89,2974711877,-135.56727600097656,79.68302154541016,-66.38298797607422,-9.48440742492676,-0.36655694246292,-1.55259954929352,-11.50778770446777,-2.90534663200378,-7.17875003814697
90,2974720210,-135.38073730468750,79.66127014160156,-66.06851959228516,-9.54011917114258,-0.44037705659866,-1.56776428222656,-14.29277133941650,-2.78559970855713,-7.09685993194580
91,2974728543,-135.21586608886719,79.64191436767578,-65.75296783447266,-9.63011741638184,-0.69919621944427,-1.57467353343964,-18.05471229553223,-2.31732058525085,-6.61387920379639
92,2974736876,-135.12516784667969,79.62479400634766,-65.44061279296875,-9.78224849700928,-0.99723088741302,-1.46944713592529,-19.44051933288574,-2.51987814903259,-6.32646179199219
93,2974745209,-134.94273376464844,79.61280059814453,-65.10804748535156,-9.90160465240479,-1.21894860267639,-1.32975602149963,-17.94548988342285,-3.23881840705872,-6.25809717178345
94,2974753542,-134.81594848632812,79.60142517089844,-64.88806915283203,-9.81752586364746,-1.40085327625275,-1.34815084934235,-16.10415840148926,-3.30705428123474,-6.22410631179810
95,2974761875,-134.57835388183594,79.59091186523438,-64.52241516113281,-9.71474361419678,-1.43414366245270,-1.30759024620056,-15.22069740295410,-3.92061781883240,-6.62056398391724
96,2974770208,-134.36470031738281,79.57798767089844,-64.01185607910156,-9.68277740478516,-1.31922686100006,-1.21258175373077,-13.98104476928711,-4.19164180755615,-7.19496250152588
97,2974778541,-134.08071899414062,79.56476593017578,-63.61067199707031,-9.67103195190430,-1.25512838363647,-1.25548446178436,-13.83509635925293,-4.31395053863525,-7.36463212966919
98,2974786874,-133.86238098144531,79.55392456054688,-63.31836700439453,-9.57078170776367,-1.16642928123474,-1.32559168338776,-15.61825752258301,-4.75589847564697,-7.29096555709839
99,2974795207,-133.59974670410156,79.54190063476562,-62.91000366210938,-9.60259056091309,-1.19853198528290,-1.36938190460205,-17.22632217407227,-4.60467243194580,-7.33386945724487
100,2974803540,-133.40727233886719,79.52829742431641,-62.48931884765625,-9.64897537231445,-1.26207780838013,-1.48357260227203,-17.41976165771484,-4.32660436630249,-7.25336456298828
101,2974811873,-133.15705871582031,79.51596069335938,-62.09124374389648,-9.57647800445557,-1.28675878047943,-1.37649810314178,-17.49668121337891,-4.48784637451172,-7.18028783798218
102,2974820206,-132.97311401367188,79.50176239013672,-61.99438858032227,-9.55321693420410,-1.24089181423187,-1.34242081642151,-17.93306922912598,-4.44576120376587,-7.35538578033447
103,2974828539,-132.74612426757812,79.48719787597656,-61.60365676879883,-9.58654117584229,-1.25554394721985,-1.39986765384674,-19.40007591247559,-4.24835300445557,-7.25103378295898
104,2974836872,-132.59930419921875,79.47241973876953,-61.20738983154297,-9.61053085327148,-1.37859284877777,-1.25502705574036,-20.39117050170898,-4.07648181915283,-6.95280790328979
105,2974845205,-132.40113830566406,79.45937347412109,-60.83957672119141,-9.59489250183105,-1.46074497699738,-1.27011561393738,-20.15041732788086,-4.07002592086792,-6.74917364120483
106,2974853538,-132.25950622558594,79.44454956054688,-60.57813644409180,-9.67114543914795,-1.55890727043152,-1.29871034622192,-19.31795310974121,-3.92804694175720,-6.74991655349731
107,2974861871,-132.04365539550781,79.42843627929688,-60.20561981201172,-9.74218845367432,-1.61810719966888,-1.25680422782898,-18.56881713867188,-3.95737528800964,-7.07882976531982
108,2974870204,-131.88005065917969,79.40811157226562,-59.87477874755859,-9.69772434234619,-1.57564556598663,-1.20501410961151,-19.10837745666504,-3.83650112152100,-7.38404941558838
109,2974878537,-131.66735839843750,79.38713073730469,-59.50040054321289,-9.54073429107666,-1.57687270641327,-1.15600597858429,-19.15868759155273,-3.66509103775024,-7.52999925613403
110,2974886870,-131.49340820312500,79.36684417724609,-59.11893463134766,-9.54415225982666,-1.66720831394196,-1.29813468456268,-18.53551673889160,-3.94466996192932,-7.28446006774902
111,2974895203,-131.29275512695312,79.34938812255859,-58.77136611938477,-9.57008934020996,-1.65271425247192,-1.42761862277985,-17.43469238281250,-3.57024121284485,-6.81185102462769
112,2974903536,-131.12078857421875,79.33300018310547,-58.45885848999023,-9.60089874267578,-1.54911601543427,-1.51408207416534,-15.57450962066650,-3.83394026756287,-6.39984655380249
113,2974911869,-130.92140197753906,79.31979370117188,-58.13687133789062,-9.54673099517822,-1.47308492660522,-1.57667350769043,-14.56338596343994,-3.54034900665283,-6.03732728958130
114,2974920202,-130.78565979003906,79.30318450927734,-57.88775253295898,-9.52509498596191,-1.41165256500244,-1.53317403793335,-13.68353748321533,-3.04840183258057,-5.52588796615601
115,2974928535,-130.62306213378906,79.29663848876953,-57.61479949951172,-9.59020614624023,-1.50173687934875,-1.47836816310883,-13.19028091430664,-3.27826380729675,-4.70651340484619
116,2974936868,-130.50566101074219,79.29216766357422,-57.38957977294922,-9.61821079254150,-1.57280468940735,-1.48588585853577,-12.44987583160400,-3.66665220260620,-3.92878842353821
117,2974945201,-130.35366821289062,79.30023956298828,-57.14314651489258,-9.61941719055176,-1.60540676116943,-1.37515592575073,-11.33269882202148,-3.98986577987671,-2.97126412391663
118,2974953534,-130.26826477050781,79.30881500244141,-56.94572448730469,-9.68090248107910,-1.67122638225555,-1.31304609775543,-10.51802635192871,-3.91185760498047,-1.94693839550018
119,2974961867,-130.14358520507812,79.32884216308594,-56.73770904541016,-9.71271610260010,-1.71836400032043,-1.35365355014801,-10.08432483673096,-4.26774168014526,-1.29833436012268
120,2974970200,-130.06375122070312,79.34558105468750,-56.56513977050781,-9.63445949554443,-1.72988700866699,-1.30352652072906,-8.39532279968262,-4.15719079971313,-0.72803342342377
121,2974978533,-129.93580627441406,79.37099456787109,-56.37964248657227,-9.64365863800049,-1.72331988811493,-1.29666709899902,-7.03707504272461,-4.28918027877808,-0.45385861396790
122,2974986866,-129.84008789062500,79.39228820800781,-56.21552276611328,-9.63136672973633,-1.65211939811707,-1.30147910118103,-6.31951856613159,-4.47854661941528,-0.14118567109108
123,2974995199,-129.70391845703125,79.42205047607422,-56.03292465209961,-9.53623294830322,-1.66330838203430,-1.30403244495392,-5.71013069152832,-4.56394433975220,0.02206666581333
124,2975003532,-129.62565612792969,79.44523620605469,-55.89513015747070,-9.51453304290771,-1.61549365520477,-1.48794460296631,-4.67119169235229,-4.07110118865967,0.61618894338608
125,2975011865,-129.53369140625000,79.46860504150391,-55.77893447875977,-9.56693458557129,-1.52373433113098,-1.51290380954742,-3.18559145927429,-2.94404888153076,0.39495870471001
126,2975020198,-129.43328857421875,79.48158264160156,-55.65019989013672,-9.60001468658447,-1.40600192546844,-1.42070567607880,-0.85679614543915,-3.16397285461426,-0.08242660760880
127,2975028531,-129.27751159667969,79.50026702880859,-55.49944686889648,-9.47005271911621,-1.38002741336823,-1.41343629360199,0.39680296182632,-3.15623736381531,-0.50590676069260
128,2975036864,-129.15637207031250,79.50540161132812,-55.36590957641602,-9.40200233459473,-1.34278035163879,-1.51221537590027,0.92614668607712,-2.75150680541992,-0.85187828540802
129,2975045197,-129.01068115234375,79.51328277587891,-55.23685836791992,-9.42326736450195,-1.33307993412018,-1.49953806400299,1.74247252941132,-1.97572851181030,-1.18583667278290
130,2975053530,-128.91136169433594,79.50689697265625,-55.14519882202148,-9.48878002166748,-1.34584462642670,-1.42461812496185,2.53951072692871,-1.34090518951416,-1.44489896297455
131,2975061863,-128.75715637207031,79.50941467285156,-55.01828002929688,-9.60042762756348,-1.30796802043915,-1.36925745010376,3.01775383949280,-1.53777611255646,-1.65017139911652
132,2975070196,-128.61796569824219,79.50049591064453,-54.88709640502930,-9.57565689086914,-1.33505713939667,-1.24563717842102,3.26385569572449,-1.82972741127014,-2.16307091712952
133,2975078529,-128.41818237304688,79.49726867675781,-54.71464538574219,-9.57539463043213,-1.31992053985596,-1.20202195644379,3.11603593826294,-1.90052509307861,-2.79553794860840
134,2975086862,-128.24089050292969,79.48161315917969,-54.53842926025391,-9.52455329895020,-1.20919847488403,-1.21402585506439,2.86683487892151,-2.07183313369751,-3.40320968627930
135,2975095195,-128.03788757324219,79.47010040283203,-54.35350036621094,-9.47723960876465,-1.23073482513428,-1.26385068893433,2.03255367279053,-1.52896511554718,-3.73132801055908
136,2975103528,-127.92275238037109,79.44445037841797,-54.22019577026367,-9.52604866027832,-1.38405048847198,-1.25430905818939,0.31960156559944,-0.61579179763794,-3.84889698028564
137,2975111861,-127.75874328613281,79.42627716064453,-54.05404663085938,-9.64887332916260,-1.45940709114075,-1.22388887405396,-0.42773213982582,-0.74176269769669,-4.10880517959595
138,2975120194,-127.62428283691406,79.39887237548828,-53.90697479248047,-9.67118167877197,-1.46837878227234,-1.28880822658539,0.20871759951115,-0.88428020477295,-4.33067560195923
139,2975128527,-127.43166351318359,79.37995910644531,-53.72368621826172,-9.67929840087891,-1.46142292022705,-1.23031795024872,0.98923468589783,-1.03040945529938,-4.40659666061401
140,2975136860,-127.26684570312500,79.35341644287109,-53.55783462524414,-9.73108482360840,-1.42951107025146,-1.22534978389740,1.04865968227386,-1.39679551124573,-4.56960535049438
141,2975145193,-127.04235076904297,79.33827972412109,-53.34377670288086,-9.72172927856445,-1.39644587039948,-1.23763406276703,1.18298065662384,-1.88395249843597,-4.46105241775513
142,2975153526,-126.86250305175781,79.31422424316406,-53.16212081909180,-9.69957256317139,-1.38328051567078,-1.21509552001953,1.33989334106445,-1.84253430366516,-4.49975538253784
143,2975161859,-126.63632965087891,79.29860687255859,-52.94816970825195,-9.66585540771484,-1.40803766250610,-1.21683514118195,1.40321195125580,-1.89714372158051,-4.49322319030762
144,2975170192,-126.44644927978516,79.27719879150391,-52.76807785034180,-9.64752101898193,-1.41302144527435,-1.19761812686920,2.23454761505127,-2.09678125381470,-4.32345199584961
145,2975178525,-126.22339630126953,79.26215362548828,-52.56539535522461,-9.58523654937744,-1.36854851245880,-1.19457042217255,2.36028790473938,-1.78400599956512,-4.27278757095337
146,2975186858,-126.05327606201172,79.23899078369141,-52.39850616455078,-9.59362411499023,-1.29820477962494,-1.11626386642456,1.95919454097748,-1.67949986457825,-4.27824354171753
147,2975195191,-125.84449005126953,79.22184753417969,-52.19346237182617,-9.64833068847656,-1.28609573841095,-1.08604907989502,0.37538945674896,-1.71922755241394,-4.50267553329468
148,2975203524,-125.67850494384766,79.20112609863281,-52.00793075561523,-9.68541049957275,-1.36101436614990,-1.16616404056549,-0.69632303714752,-2.19639515876770,-4.32557868957520
149,2975211857,-125.47907257080078,79.18653869628906,-51.79962539672852,-9.68780422210693,-1.45520460605621,-1.20954895019531,-1.12623238563538,-1.99829459190369,-4.29122972488403
150,2975220190,-125.32505035400391,79.16355133056641,-51.61999511718750,-9.73292732238770,-1.49051225185394,-1.15354633331299,-1.28086555004120,-1.91125750541687,-4.50426340103149
151,2975228523,-125.09852600097656,79.14579772949219,-51.38988876342773,-9.78374195098877,-1.53685724735260,-1.12094044685364,-0.44010382890701,-2.22838711738586,-4.87239122390747
152,2975236856,-124.90142059326172,79.12089538574219,-51.19134140014648,-9.73057651519775,-1.51450860500336,-1.16442835330963,0.48850190639496,-2.33591604232788,-5.08644866943359
153,2975245189,-124.64852142333984,79.10224914550781,-50.94896316528320,-9.62536334991455,-1.46925377845764,-1.07927405834198,1.27839374542236,-2.44318842887878,-5.11436891555786
154,2975253522,-124.44379425048828,79.07473754882812,-50.74684906005859,-9.55834865570068,-1.39952588081360,-1.07838654518127,1.96521341800690,-2.11266183853149,-5.26718235015869
155,2975261855,-124.22096252441406,79.04840850830078,-50.53636550903320,-9.66490650177002,-1.40098106861115,-1.02843332290649,1.43569087982178,-1.38841962814331,-5.45088911056519
156,2975270188,-124.07080841064453,79.01597595214844,-50.38407516479492,-9.59262561798096,-1.45239818096161,-0.99259221553802,0.48086881637573,-0.97925776243210,-5.23524188995361
157,2975278521,-123.91244506835938,78.98629760742188,-50.22875595092773,-9.48614978790283,-1.52987909317017,-1.05120635032654,0.20169930160046,-0.17269116640091,-5.07802200317383
158,2975286854,-123.80162048339844,78.95126342773438,-50.11654281616211,-9.63273048400879,-1.53430604934692,-0.98118495941162,0.57640993595123,-0.00878568179905,-5.01933956146240
159,2975295187,-123.65487670898438,78.92171478271484,-49.97494888305664,-9.64262771606445,-1.47609913349152,-0.90650796890259,0.43207371234894,0.04348016530275,-4.89833831787109
160,2975303520,-123.56632232666016,78.88431549072266,-49.88648986816406,-9.59149837493896,-1.46843302249908,-0.98440003395081,0.19524450600147,0.52128815650940,-5.00463771820068
161,2975311853,-123.45549011230469,78.84690093994141,-49.78302383422852,-9.51633834838867,-1.43053209781647,-1.06721019744873,0.61483126878738,1.26243603229523,-5.20304536819458
162,2975320186,-123.40219116210938,78.80022430419922,-49.73160171508789,-9.48083686828613,-1.31168437004089,-1.04195165634155,1.20257568359375,2.04044294357300,-5.40242671966553
163,2975328519,-123.31124114990234,78.75517272949219,-49.64939117431641,-9.57904052734375,-1.23605334758759,-0.88382810354233,0.73040282726288,2.15583515167236,-5.71768665313721
164,2975336852,-123.26610565185547,78.70488739013672,-49.58878326416016,-9.53927230834961,-1.28690981864929,-0.98842066526413,-1.30676150321960,2.03437209129333,-5.98960685729980
165,2975345185,-123.21851348876953,78.65670776367188,-49.51939773559570,-9.52178382873535,-1.40935969352722,-1.08757185935974,-2.95493507385254,2.58382320404053,-5.86945152282715
166,2975353518,-123.21997833251953,78.60703277587891,-49.48283004760742,-9.59594249725342,-1.52478504180908,-1.03969538211823,-3.33968687057495,2.64465713500977,-5.64381551742554
167,2975361851,-123.17089080810547,78.56328582763672,-49.41551589965820,-9.63825702667236,-1.55382478237152,-1.05384099483490,-2.52943110466003,2.31661534309387,-5.40734434127808
168,2975370184,-123.13198852539062,78.52259826660156,-49.37134170532227,-9.68861484527588,-1.54836547374725,-1.00395703315735,-1.47230625152588,1.55315744876862,-5.09034299850464
169,2975378517,-123.04992675781250,78.48808288574219,-49.28593826293945,-9.65863037109375,-1.51262152194977,-0.95516562461853,-0.70060056447983,1.32762408256531,-4.72411012649536
170,2975386850,-123.00072479248047,78.45274353027344,-49.24028778076172,-9.64706230163574,-1.60808837413788,-0.90488094091415,0.12567625939846,1.29729688167572,-4.54053306579590
171,2975395183,-122.92772674560547,78.41815948486328,-49.18019104003906,-9.68901538848877,-1.67120528221130,-0.85766375064850,1.19366180896759,1.81706106662750,-4.40516233444214
172,2975403516,-122.87825012207031,78.38742065429688,-49.14541244506836,-9.69772243499756,-1.68134903907776,-0.73700332641602,1.54396212100983,1.30142104625702,-3.95509409904480
173,2975411849,-122.80972290039062,78.35830688476562,-49.09225082397461,-9.67106246948242,-1.60958909988403,-0.78610497713089,1.47406077384949,1.58860778808594,-3.77154254913330
174,2975420182,-122.77588653564453,78.32774353027344,-49.07269668579102,-9.68245220184326,-1.54709863662720,-0.79284697771072,0.78283506631851,1.54857254028320,-3.78624486923218
175,2975428515,-122.71496582031250,78.30026245117188,-49.01024246215820,-9.72211360931396,-1.48557496070862,-0.81810927391052,-0.52957427501678,1.27762520313263,-3.73063611984253
176,2975436848,-122.68347930908203,78.27506256103516,-48.96834945678711,-9.74865913391113,-1.47513067722321,-0.94946098327637,-1.58882522583008,0.94602328538895,-3.51504135131836
177,2975445181,-122.62454223632812,78.25301361083984,-48.89681243896484,-9.73387432098389,-1.47689425945282,-1.00579249858856,-1.83561825752258,0.72796928882599,-3.30876946449280
178,2975453514,-122.59020233154297,78.23661041259766,-48.84514236450195,-9.68366813659668,-1.46273934841156,-1.03985214233398,-1.77808904647827,0.34157863259315,-2.72924828529358
179,2975461847,-122.54129791259766,78.22163391113281,-48.77874755859375,-9.57399368286133,-1.59661877155304,-1.17260801792145,-2.43360829353333,0.36511808633804,-2.52902150154114
180,2975470180,-122.53005981445312,78.20411682128906,-48.74465179443359,-9.48619461059570,-1.77593922615051,-1.29880356788635,-3.20810627937317,0.66757106781006,-2.72993969917297
181,2975478513,-122.50251770019531,78.18517303466797,-48.70418548583984,-9.53683280944824,-1.85035026073456,-1.35439908504486,-1.95070338249207,1.15416467189789,-2.59403085708618
182,2975486846,-122.47426605224609,78.16912078857422,-48.67836761474609,-9.56348323822021,-1.76638174057007,-1.31858396530151,0.46947056055069,0.84149169921875,-2.39603233337402
183,2975495179,-122.39760589599609,78.15293884277344,-48.62232589721680,-9.56836032867432,-1.74004864692688,-1.20957744121552,2.11672210693359,0.64577335119247,-2.52059459686279
184,2975503512,-122.33788299560547,78.13728332519531,-48.58705520629883,-9.58222484588623,-1.65717661380768,-1.14997279644012,2.67923617362976,0.48102247714996,-2.49100995063782
185,2975511845,-122.23784637451172,78.12519073486328,-48.51169586181641,-9.52599048614502,-1.56426513195038,-1.16689765453339,2.65382695198059,-0.03091638535261,-2.35922503471375
186,2975520178,-122.18209838867188,78.11136627197266,-48.47081375122070,-9.54271316528320,-1.49697446823120,-1.24639427661896,1.15844213962555,0.16340601444244,-2.41511487960815
187,2975528511,-122.11553192138672,78.09636688232422,-48.40099334716797,-9.64020156860352,-1.48882758617401,-1.21569097042084,-0.71123051643372,0.26015099883080,-2.58639764785767
188,2975536844,-122.09416961669922,78.08215332031250,-48.36108779907227,-9.60537719726562,-1.53444290161133,-1.27699148654938,-2.46465277671814,0.25338882207870,-2.42692303657532
189,2975545177,-122.04853057861328,78.06879425048828,-48.28623962402344,-9.55771160125732,-1.59181153774261,-1.29913389682770,-3.80965662002563,0.04470965266228,-2.48903799057007
190,2975553510,-122.01325988769531,78.05938720703125,-48.22012710571289,-9.54404258728027,-1.63266336917877,-1.26751399040222,-3.83947181701660,-0.62575584650040,-2.31626987457275
191,2975561843,-121.94155120849609,78.05115509033203,-48.12162399291992,-9.58100509643555,-1.66421961784363,-1.27124965190887,-3.45866489410400,-0.78891849517822,-2.27674722671509
192,2975570176,-121.90138244628906,78.04583740234375,-48.05624771118164,-9.62178134918213,-1.73986375331879,-1.26730036735535,-3.22219395637512,-0.91219973564148,-1.91817307472229
193,2975578509,-121.83490753173828,78.04051971435547,-47.96971130371094,-9.57133293151855,-1.74947965145111,-1.32625532150269,-2.68081140518188,-0.72616356611252,-1.82229924201965
194,2975586842,-121.80844879150391,78.03504943847656,-47.93626403808594,-9.52688598632812,-1.75988566875458,-1.34851324558258,-2.01371431350708,-0.41856220364571,-1.61005949974060
195,2975595175,-121.74215698242188,78.03112792968750,-47.86187362670898,-9.50919818878174,-1.70086145401001,-1.31083714962006,-1.27510225772858,-0.56343632936478,-1.51830959320068
196,2975603508,-121.71472167968750,78.02717590332031,-47.82627868652344,-9.56157016754150,-1.71975803375244,-1.19428157806396,-0.69486290216446,-0.35027465224266,-1.29367256164551
197,2975611841,-121.65756988525391,78.02535247802734,-47.76578140258789,-9.58732032775879,-1.67875075340271,-1.13100039958954,-0.74061000347137,-0.40475612878799,-1.12367093563080
198,2975620174,-121.63097381591797,78.02587890625000,-47.73973083496094,-9.54154205322266,-1.57353961467743,-1.12657272815704,-0.64353191852570,-0.62086337804794,-0.81709402799606
199,2975628507,-121.58699798583984,78.02622222900391,-47.68447113037109,-9.54864406585693,-1.56832647323608,-1.15966546535492,-1.70452487468719,-0.43554443120956,-0.83087456226349
200,2975636840,-121.60329437255859,78.02418518066406,-47.66773986816406,-9.58445072174072,-1.67073857784271,-1.18609690666199,-3.29960036277771,-0.01055306568742,-0.80641293525696
201,2975645173,-121.58037567138672,78.02434539794922,-47.61688232421875,-9.66044902801514,-1.81403958797455,-1.20737874507904,-3.71964764595032,-0.32939907908440,-0.79852378368378
202,2975653506,-121.59081268310547,78.02602386474609,-47.59897232055664,-9.58472728729248,-1.86717212200165,-1.22657811641693,-3.52072787284851,-0.41420784592628,-0.54606992006302
203,2975661839,-121.56586456298828,78.02908325195312,-47.55271911621094,-9.56189250946045,-1.87231934070587,-1.21594941616058,-2.93113970756531,-0.41643622517586,-0.43613362312317
204,2975670172,-121.58364105224609,78.03017425537109,-47.55511856079102,-9.55425548553467,-1.96205687522888,-1.25451385974884,-2.35159158706665,-0.02115735784173,-0.34474200010300
205,2975678505,-121.55689239501953,78.02991485595703,-47.51865005493164,-9.58538722991943,-1.95092201232910,-1.22725200653076,-1.56733489036560,-0.00227966671810,-0.65037101507187
206,2975686838,-121.55309295654297,78.03013610839844,-47.51491546630859,-9.49353218078613,-1.91638255119324,-1.24769186973572,-1.32072114944458,-0.25678271055222,-0.56430721282959
207,2975695171,-121.52342224121094,78.02957916259766,-47.47900772094727,-9.43804740905762,-1.86246442794800,-1.26767694950104,-1.15212821960449,0.02770179323852,-0.67221999168396
208,2975703504,-121.51376342773438,78.02552795410156,-47.46654129028320,-9.47499179840088,-1.90269911289215,-1.30690312385559,-0.90984320640564,-0.05955309420824,-0.98053842782974
209,2975711837,-121.46449279785156,78.01949310302734,-47.41423416137695,-9.43745422363281,-1.84236490726471,-1.25965142250061,-0.72480601072311,0.01845505647361,-1.44584679603577
210,2975720170,-121.44470214843750,78.00894927978516,-47.39074707031250,-9.38181877136230,-1.83955371379852,-1.25491416454315,-0.73384785652161,0.12895487248898,-1.72171211242676
211,2975728503,-121.41191101074219,77.99521636962891,-47.35060882568359,-9.37540721893311,-1.90874934196472,-1.26843988895416,-1.27879059314728,0.75460815429688,-2.07746791839600
212,2975736836,-121.42493438720703,77.97590637207031,-47.36471939086914,-9.49488258361816,-1.98946762084961,-1.32741284370422,-1.40004849433899,1.24268746376038,-2.21483731269836
213,2975745169,-121.39282989501953,77.95554351806641,-47.32646179199219,-9.51965045928955,-1.95194101333618,-1.32177150249481,-1.13545346260071,1.20516264438629,-2.73206567764282
214,2975753502,-121.39270782470703,77.92826080322266,-47.33296966552734,-9.49865531921387,-1.94011747837067,-1.19424521923065,-0.96811562776566,1.49783074855804,-3.10554671287537
215,2975761835,-121.36038970947266,77.90159606933594,-47.29375457763672,-9.41269207000732,-1.91114282608032,-1.19834530353546,-1.22297704219818,1.57088243961334,-3.39350175857544
216,2975770168,-121.35044097900391,77.87096405029297,-47.28128051757812,-9.37354373931885,-1.89019203186035,-1.20518016815186,-0.79501461982727,1.51235413551331,-3.52428793907166
217,2975778501,-121.32690429687500,77.84297943115234,-47.25069046020508,-9.39199733734131,-1.93510460853577,-1.21458590030670,-1.26293540000916,1.83540081977844,-3.42500734329224
218,2975786834,-121.35548400878906,77.80751037597656,-47.26361465454102,-9.44279003143311,-1.93143749237061,-1.29171633720398,-2.40727710723877,2.34771132469177,-3.63332819938660
219,2975795167,-121.37266540527344,77.77398681640625,-47.25943756103516,-9.47418689727783,-1.90953147411346,-1.35254657268524,-3.05029678344727,2.74247789382935,-3.63750362396240
220,2975803500,-121.43068695068359,77.73270416259766,-47.28733062744141,-9.44720458984375,-1.88164734840393,-1.35484135150909,-3.74254751205444,3.11990356445312,-3.95258402824402
221,2975811833,-121.46466827392578,77.69095611572266,-47.29018020629883,-9.43031501770020,-1.84590232372284,-1.35359287261963,-4.24148654937744,3.41943621635437,-4.38484954833984
222,2975820166,-121.53069305419922,77.63871002197266,-47.32680511474609,-9.40154075622559,-1.85224425792694,-1.24813830852509,-5.07092761993408,3.71502542495728,-5.08071231842041
223,2975828499,-121.55881500244141,77.58934020996094,-47.31609725952148,-9.35063934326172,-1.90953743457794,-1.25797533988953,-5.12919902801514,3.60698366165161,-5.34492254257202
224,2975836832,-121.61680603027344,77.53253173828125,-47.33905029296875,-9.32052612304688,-1.93439853191376,-1.23870253562927,-4.99966764450073,3.81256341934204,-5.60833930969238
225,2975845165,-121.66007995605469,77.47592926025391,-47.34677505493164,-9.41309452056885,-1.93117547035217,-1.23298346996307,-4.78584003448486,4.47118186950684,-5.82731533050537
226,2975853498,-121.74843597412109,77.41252899169922,-47.39805221557617,-9.52088737487793,-1.99194931983948,-1.25750815868378,-5.37268924713135,4.86610364913940,-5.86904191970825
227,2975861831,-121.80724334716797,77.35341644287109,-47.41582870483398,-9.56897640228271,-2.02112627029419,-1.33729434013367,-5.47176456451416,4.86597537994385,-5.93036174774170
228,2975870164,-121.90583038330078,77.28935241699219,-47.48554992675781,-9.55482864379883,-2.02111673355103,-1.31571984291077,-4.48167181015015,5.33215332031250,-5.63459396362305
229,2975878497,-121.97167205810547,77.22955322265625,-47.52191162109375,-9.57471466064453,-2.03088212013245,-1.26271510124207,-4.14430618286133,5.34826469421387,-5.73028802871704
230,2975886830,-122.05252838134766,77.16688537597656,-47.57250976562500,-9.54672336578369,-1.97888970375061,-1.21575939655304,-3.94359278678894,4.95736598968506,-5.62990617752075
231,2975895163,-122.12183380126953,77.11134338378906,-47.60956954956055,-9.56733417510986,-2.02329421043396,-1.25037217140198,-4.47726583480835,5.11199998855591,-5.27117967605591
232,2975903496,-122.22201538085938,77.05091094970703,-47.67638015747070,-9.58612632751465,-2.03516268730164,-1.28075277805328,-5.07561397552490,5.07319355010986,-5.20137929916382
233,2975911829,-122.30574035644531,76.99792480468750,-47.71780395507812,-9.58448696136475,-2.02561998367310,-1.29458975791931,-5.69724750518799,5.07012128829956,-4.93081808090210
234,2975920162,-122.42708587646484,76.93918609619141,-47.79441452026367,-9.55657768249512,-2.00656747817993,-1.35526919364929,-6.11437463760376,5.29985475540161,-4.79641962051392
235,2975928495,-122.50471496582031,76.88856506347656,-47.82785415649414,-9.56393814086914,-1.96977663040161,-1.24388062953949,-5.90224981307983,4.75277280807495,-4.78208827972412
236,2975936828,-122.61648559570312,76.83177947998047,-47.90468597412109,-9.50683212280273,-1.89326870441437,-1.22486090660095,-6.22589921951294,4.95050239562988,-4.70533561706543
237,2975945161,-122.72717285156250,76.78338623046875,-47.96398162841797,-9.41712570190430,-1.91299593448639,-1.27351009845734,-6.85854578018188,5.23041486740112,-4.16003417968750
238,2975953494,-122.89566040039062,76.72957611083984,-48.08137512207031,-9.44544696807861,-2.08050870895386,-1.23252010345459,-7.20349073410034,5.95775604248047,-3.62735986709595
239,2975961827,-123.04399108886719,76.68387603759766,-48.17542266845703,-9.51863574981689,-2.05579876899719,-1.24801766872406,-7.31283855438232,5.88432025909424,-3.33164381980896
240,2975970160,-123.23612213134766,76.63359832763672,-48.31640243530273,-9.57773017883301,-1.92959809303284,-1.22074055671692,-7.67617750167847,6.24753046035767,-2.89779019355774
241,2975978493,-123.41475677490234,76.59648132324219,-48.42951583862305,-9.59719753265381,-2.05551671981812,-1.17466855049133,-8.72917842864990,5.79764223098755,-2.14337372779846
242,2975986826,-123.62515258789062,76.55837249755859,-48.56625366210938,-9.61460208892822,-2.15248084068298,-1.36306762695312,-10.18478393554688,5.43617343902588,-1.65245139598846
243,2975995159,-123.82144165039062,76.52609252929688,-48.69064712524414,-9.64532184600830,-2.11978435516357,-1.40704333782196,-9.53469467163086,5.75665903091431,-1.43406438827515
244,2976003492,-124.02603149414062,76.49020385742188,-48.83017730712891,-9.68317222595215,-2.15738320350647,-1.29006421566010,-8.44957351684570,5.55445957183838,-1.22684514522552
245,2976011825,-124.18767547607422,76.46093750000000,-48.93772506713867,-9.61636161804199,-2.11880254745483,-1.31786739826202,-7.34726381301880,5.18505096435547,-1.35732388496399
246,2976020158,-124.33103942871094,76.42636108398438,-49.03643035888672,-9.57160186767578,-1.98476660251617,-1.32509863376617,-6.26350116729736,4.46380662918091,-1.71425867080688
247,2976028491,-124.44483184814453,76.40147399902344,-49.09871292114258,-9.44666671752930,-1.83695363998413,-1.26841175556183,-6.88661909103394,3.85344457626343,-1.61738550662994
248,2976036824,-124.59460449218750,76.37365722656250,-49.18254852294922,-9.40566349029541,-1.78075695037842,-1.37597906589508,-8.49293804168701,3.75134563446045,-1.20850527286530
249,2976045157,-124.74617767333984,76.35646057128906,-49.26033020019531,-9.42118263244629,-1.76016402244568,-1.46272885799408,-9.61671161651611,3.69727396965027,-0.58597695827484
250,2976053490,-124.92478942871094,76.34004211425781,-49.36274337768555,-9.48056316375732,-1.81149673461914,-1.46172416210175,-10.01342582702637,3.37924790382385,0.19142800569534
251,2976061823,-125.10523223876953,76.33282470703125,-49.46293640136719,-9.53471183776855,-1.97056412696838,-1.50276541709900,-10.47043418884277,3.53849148750305,0.77479225397110
252,2976070156,-125.29409790039062,76.32585144042969,-49.56204223632812,-9.59858989715576,-1.91762650012970,-1.33319520950317,-11.14106559753418,2.74519276618958,1.12509262561798
253,2976078489,-125.48859405517578,76.32543945312500,-49.66737747192383,-9.58357810974121,-1.84400558471680,-1.30741608142853,-11.55670928955078,3.17254114151001,1.55310654640198
254,2976086822,-125.71350097656250,76.32017517089844,-49.79339599609375,-9.59599399566650,-1.95707857608795,-1.34485900402069,-12.63704013824463,3.18171095848083,1.71506536006927
255,2976095155,-125.92971801757812,76.31900787353516,-49.90909576416016,-9.62910747528076,-2.02023649215698,-1.32033693790436,-12.95601463317871,3.45493793487549,1.66860103607178
256,2976103488,-126.15155792236328,76.31864929199219,-50.03070068359375,-9.66610240936279,-2.15819621086121,-1.29529559612274,-12.44129753112793,2.81560683250427,2.18045043945312
257,2976111821,-126.33132934570312,76.33576202392578,-50.11760711669922,-9.64373588562012,-2.20667600631714,-1.39895224571228,-11.93869400024414,1.48494696617126,2.97100830078125
258,2976120154,-126.49951934814453,76.35789489746094,-50.21804046630859,-9.60891246795654,-2.24795174598694,-1.31134140491486,-8.82092761993408,0.66644394397736,3.99086427688599
259,2976128487,-126.64271545410156,76.38764190673828,-50.32512283325195,-9.55578994750977,-2.16051650047302,-1.33813190460205,-5.19264554977417,1.01021254062653,4.53327131271362
260,2976136820,-126.77544403076172,76.41233062744141,-50.44728469848633,-9.55350780487061,-2.01444339752197,-1.32086181640625,-2.03154182434082,0.97850221395493,4.64461612701416
261,2976145153,-126.86090087890625,76.44469451904297,-50.54872131347656,-9.57547664642334,-1.85938394069672,-1.40463387966156,1.08024203777313,0.66311413049698,4.68434429168701
262,2976153486,-126.97274017333984,76.46400451660156,-50.68930435180664,-9.46494293212891,-1.78280198574066,-1.45558023452759,3.11291050910950,1.86393499374390,4.54871702194214
263,2976161819,-127.10252380371094,76.48003387451172,-50.86935043334961,-9.40818691253662,-1.62387502193451,-1.45344698429108,4.93836021423340,3.57327508926392,4.44692564010620
264,2976170152,-127.25817108154297,76.48881530761719,-51.08015823364258,-9.43053531646729,-1.51515591144562,-1.38681566715240,6.19271516799927,4.21516799926758,4.73283195495605
265,2976178485,-127.40248107910156,76.50691223144531,-51.28998947143555,-9.53540325164795,-1.41702365875244,-1.35779976844788,6.67108726501465,4.06440305709839,5.15329027175903
266,2976186818,-127.59091186523438,76.52005767822266,-51.54157638549805,-9.55911731719971,-1.32163131237030,-1.53214561939240,7.14515638351440,4.78877353668213,5.83637094497681
267,2976195151,-127.81871032714844,76.53574371337891,-51.83427047729492,-9.60239219665527,-1.38582849502563,-1.45262086391449,6.32311773300171,6.02463531494141,6.35700511932373
268,2976203484,-128.12339782714844,76.54421234130859,-52.18126296997070,-9.71284198760986,-1.49364650249481,-1.47967040538788,4.47320556640625,7.20135211944580,7.01288366317749
269,2976211817,-128.39796447753906,76.56501770019531,-52.50415802001953,-9.88707542419434,-1.54930555820465,-1.28699350357056,4.23924636840820,6.22616767883301,7.40634489059448
270,2976220150,-128.66525268554688,76.59117889404297,-52.81608581542969,-9.82776260375977,-1.58128118515015,-1.32877123355865,4.78226804733276,5.02186346054077,8.03005123138428
271,2976228483,-128.91802978515625,76.62902069091797,-53.13070297241211,-9.84281826019287,-1.57773363590240,-1.32915711402893,5.89830589294434,4.67248487472534,8.87841987609863
272,2976236816,-129.16059875488281,76.66874694824219,-53.42666244506836,-9.88830566406250,-1.54389202594757,-1.32877016067505,6.13631296157837,3.63083052635193,9.02167892456055
273,2976245149,-129.35705566406250,76.71842193603516,-53.69635391235352,-9.83124732971191,-1.43572759628296,-1.17973160743713,7.42568254470825,2.69066047668457,9.19409084320068
274,2976253482,-129.54643249511719,76.76640319824219,-53.94928359985352,-9.72375774383545,-1.31765568256378,-1.32730555534363,7.59663295745850,2.01987481117249,8.99957561492920
275,2976261815,-129.70889282226562,76.81691741943359,-54.17685317993164,-9.68532371520996,-1.14823603630066,-1.27702200412750,6.59908628463745,1.63555896282196,8.51344299316406
276,2976270148,-129.89099121093750,76.86170959472656,-54.40082550048828,-9.62849712371826,-1.09260785579681,-1.27034032344818,4.90449905395508,1.58133339881897,8.07638740539551
277,2976278481,-130.05732727050781,76.90568542480469,-54.60375595092773,-9.60477352142334,-1.15828227996826,-1.35378193855286,3.26654481887817,1.53835248947144,7.46120834350586
278,2976286814,-130.23344421386719,76.94149017333984,-54.79668807983398,-9.59971618652344,-1.10271596908569,-1.52306771278381,2.32819294929504,1.63924717903137,6.64690732955933
279,2976295147,-130.38731384277344,76.97235107421875,-54.97063064575195,-9.45461750030518,-1.12126910686493,-1.61250329017639,1.37782812118530,1.88870394229889,5.73939466476440
280,2976303480,-130.56109619140625,76.99566650390625,-55.13383483886719,-9.45561313629150,-1.19033002853394,-1.82965803146362,-0.93443298339844,1.94013750553131,4.87114858627319
281,2976311813,-130.71669006347656,77.02136993408203,-55.27629470825195,-9.46475696563721,-1.31785857677460,-1.92359185218811,-2.50468802452087,1.59601020812988,4.71446704864502
282,2976320146,-130.90911865234375,77.04537963867188,-55.44179153442383,-9.41961097717285,-1.48663187026978,-1.93952608108521,-2.88961839675903,1.85763394832611,4.89453458786011
283,2976328479,-131.08471679687500,77.07312774658203,-55.60693740844727,-9.50814819335938,-1.62560725212097,-1.92845797538757,-2.24711132049561,1.86042594909668,5.28778982162476
284,2976336812,-131.27838134765625,77.10414886474609,-55.78967285156250,-9.49761676788330,-1.68671953678131,-1.92052733898163,-0.77244865894318,1.56342911720276,5.83921432495117
285,2976345145,-131.44226074218750,77.14276885986328,-55.96516799926758,-9.47914218902588,-1.73776996135712,-1.81961464881897,0.37713116407394,1.15206420421600,6.44432353973389
286,2976353478,-131.63679504394531,77.18258666992188,-56.15972518920898,-9.52619743347168,-1.67613804340363,-1.68597996234894,0.06993968039751,0.89653670787811,6.77367210388184
287,2976361811,-131.80770874023438,77.22421264648438,-56.33079528808594,-9.53312015533447,-1.69121646881104,-1.68104612827301,-0.97615849971771,0.75952607393265,6.62077999114990
288,2976370144,-132.01362609863281,77.26172637939453,-56.51978302001953,-9.52493190765381,-1.83390104770660,-1.75634527206421,-1.68160009384155,0.91815513372421,6.50159692764282
289,2976378477,-132.18881225585938,77.29679107666016,-56.68949127197266,-9.52138614654541,-1.91670417785645,-1.67336726188660,-1.64146268367767,1.19368743896484,5.99423027038574
290,2976386810,-132.36320495605469,77.33017730712891,-56.85670471191406,-9.63057231903076,-1.72427833080292,-1.41487634181976,-0.31374874711037,0.75834780931473,5.77909612655640
291,2976395143,-132.50686645507812,77.36656951904297,-57.01900482177734,-9.54950523376465,-1.39423453807831,-1.33588922023773,1.28310680389404,0.88713622093201,5.96764326095581
292,2976403476,-132.68992614746094,77.39385223388672,-57.21106719970703,-9.51742935180664,-1.23158848285675,-1.39664185047150,1.69068050384521,1.69506061077118,5.73468160629272
293,2976411809,-132.85893249511719,77.42105865478516,-57.38985061645508,-9.53986644744873,-1.29698848724365,-1.49186789989471,0.17716085910797,1.89846324920654,5.44096326828003
294,2976420142,-133.08552551269531,77.44278717041016,-57.60275650024414,-9.46988677978516,-1.50477361679077,-1.60144114494324,-1.22456538677216,2.50462388992310,5.55054140090942
295,2976428475,-133.31549072265625,77.46468353271484,-57.82777023315430,-9.49416923522949,-1.70161640644073,-1.83901262283325,-1.71845901012421,3.15883684158325,5.79556608200073
296,2976436808,-133.57853698730469,77.48879241943359,-58.07308959960938,-9.52520179748535,-1.70825028419495,-1.89476478099823,-1.66697454452515,2.87605619430542,6.34857845306396
297,2976445141,-133.83171081542969,77.52505493164062,-58.31954193115234,-9.53038501739502,-1.72273278236389,-1.93169879913330,-1.98044180870056,2.29453659057617,7.43436622619629
298,2976453474,-134.16580200195312,77.56598663330078,-58.61828231811523,-9.48652362823486,-1.83784580230713,-2.00756502151489,-3.98470425605774,2.32163596153259,8.78213500976562
299,2976461807,-134.49722290039062,77.61764526367188,-58.92657089233398,-9.52406311035156,-1.94984138011932,-2.07476735115051,-4.11684894561768,2.03163194656372,9.85493659973145
300,2976470140,-134.86276245117188,77.67350769042969,-59.26803970336914,-9.64117622375488,-1.98127686977386,-1.89204275608063,-3.07739663124084,1.57451999187469,10.80112743377686
301,2976478473,-135.20014953613281,77.74216461181641,-59.59738159179688,-9.67379760742188,-1.87133455276489,-1.78565812110901,-2.34416389465332,0.79361879825592,11.64188957214355
302,2976486806,-135.58140563964844,77.81162261962891,-59.95609283447266,-9.62001228332520,-1.81093573570251,-1.73016536235809,-2.83749437332153,0.46716535091400,12.29963874816895
303,2976495139,-135.97364807128906,77.88908386230469,-60.33169174194336,-9.62028312683105,-1.75792717933655,-1.59776926040649,-3.48152542114258,0.62982851266861,13.14658355712891
304,2976503472,-136.38880920410156,77.97130584716797,-60.72097015380859,-9.61959362030029,-1.81443965435028,-1.40965926647186,-3.09722280502319,-0.35250315070152,13.92370891571045
305,2976511805,-136.79241943359375,78.06555938720703,-61.11671066284180,-9.62629604339600,-1.90351259708405,-1.50948894023895,-2.45074486732483,-0.76883709430695,14.80125427246094
306,2976520138,-137.20730590820312,78.15605163574219,-61.52301025390625,-9.71239280700684,-1.71667134761810,-1.34499764442444,-0.85953718423843,-1.04565024375916,14.86823558807373
307,2976528471,-137.60884094238281,78.25235748291016,-61.93242645263672,-9.69658184051514,-1.53105008602142,-1.21515202522278,-0.56148976087570,-1.03566038608551,15.07919311523438
308,2976536804,-138.06642150878906,78.34629058837891,-62.37154006958008,-9.67850589752197,-1.51418399810791,-1.49052882194519,-2.28586602210999,-1.14736425876617,15.63545703887939
309,2976545137,-138.54374694824219,78.44875335693359,-62.83993530273438,-9.66043567657471,-1.67567825317383,-1.56234455108643,-2.68844485282898,-0.98581510782242,16.48313140869141
310,2976553470,-139.05311584472656,78.54833984375000,-63.33221817016602,-9.75613689422607,-1.88428139686584,-1.59223115444183,-2.07219195365906,-1.14423930644989,16.92472457885742
311,2976561803,-139.55427551269531,78.66144561767578,-63.83334350585938,-9.74372100830078,-1.90389156341553,-1.73124015331268,-1.65405237674713,-1.87307977676392,17.72382545471191
312,2976570136,-140.11721801757812,78.77747344970703,-64.38949584960938,-9.62784957885742,-1.87948989868164,-1.79032719135284,-1.01729536056519,-2.15597653388977,19.20741653442383
313,2976578469,-140.70417785644531,78.90657043457031,-64.99928283691406,-9.56224441528320,-1.96401441097260,-1.66760134696960,0.88803309202194,-2.24301362037659,20.64965248107910
314,2976586802,-141.32498168945312,79.03313446044922,-65.64024353027344,-9.68702507019043,-2.01508951187134,-1.71235561370850,2.30304050445557,-2.48240447044373,21.35865402221680
315,2976595135,-141.90461730957031,79.17990875244141,-66.27478790283203,-9.76107215881348,-1.80264413356781,-1.67599606513977,4.75762844085693,-4.19963502883911,22.08169555664062
316,2976603468,-142.52265930175781,79.32074737548828,-66.94054412841797,-9.72438240051270,-1.50956428050995,-1.49402499198914,5.51570749282837,-4.19220685958862,22.58329772949219
317,2976611801,-143.16853332519531,79.46933746337891,-67.65137481689453,-9.65260410308838,-1.09336984157562,-1.39292120933533,5.87251377105713,-4.06779813766479,23.15152359008789
318,2976620134,-143.86758422851562,79.60798645019531,-68.38805389404297,-9.63919639587402,-0.89072376489639,-1.56060504913330,4.49951362609863,-3.78363370895386,23.35403251647949
319,2976628467,-144.62409973144531,79.74838256835938,-69.16339111328125,-9.55766773223877,-0.88300013542175,-1.45798194408417,0.29365450143814,-3.26228141784668,23.23981666564941
320,2976636800,-145.38604736328125,79.89115142822266,-69.91797637939453,-9.60325336456299,-0.98770844936371,-1.54653871059418,-1.04933881759644,-4.83527851104736,23.44583320617676
321,2976645133,-146.19891357421875,80.03900909423828,-70.73834991455078,-9.56024074554443,-1.19540393352509,-1.56614434719086,-1.06532227993011,-4.36497545242310,24.03112411499023
322,2976653466,-147.02322387695312,80.17763519287109,-71.56117248535156,-9.59330844879150,-1.19645285606384,-1.55758726596832,-0.32752937078476,-4.52542257308960,23.81035041809082
323,2976661799,-147.84324645996094,80.32375335693359,-72.40917205810547,-9.69928741455078,-1.08227157592773,-1.61315488815308,1.43505120277405,-4.83868598937988,23.83130645751953
324,2976670132,-148.71199035644531,80.46075439453125,-73.28694915771484,-9.70967006683350,-1.00710868835449,-1.54999792575836,1.22755014896393,-4.70889806747437,24.16556930541992
325,2976678465,-149.60809326171875,80.60418701171875,-74.20703125000000,-9.68812084197998,-1.02595984935760,-1.71192812919617,0.92015337944031,-4.81043243408203,24.29020881652832
326,2976686798,-150.54731750488281,80.73236083984375,-75.15261077880859,-9.59450817108154,-0.99122756719589,-1.55177366733551,0.59398156404495,-4.15924119949341,24.15480995178223
327,2976695131,-151.52735900878906,80.86197662353516,-76.15431976318359,-9.58865165710449,-0.91851085424423,-1.51366484165192,0.60261350870132,-3.63735079765320,24.22493934631348
328,2976703464,-152.52070617675781,80.98677062988281,-77.16763305664062,-9.57114601135254,-0.79114544391632,-1.44440245628357,2.36520695686340,-4.26838397979736,24.54899024963379
329,2976711797,-153.54788208007812,81.11106872558594,-78.22816467285156,-9.47284507751465,-0.67773294448853,-1.42847394943237,1.99362099170685,-3.66688489913940,24.28841781616211
330,2976720130,-154.59129333496094,81.22018432617188,-79.28154754638672,-9.58003139495850,-0.60846906900406,-1.27957451343536,1.20616209506989,-3.31076955795288,23.76573181152344
331,2976728463,-155.65388488769531,81.33050537109375,-80.36361694335938,-9.59496307373047,-0.54656070470810,-1.30019593238831,0.38517427444458,-3.07555413246155,23.31543350219727
332,2976736796,-156.71475219726562,81.42689514160156,-81.42479705810547,-9.57061576843262,-0.46067938208580,-1.33737385272980,0.00126790499780,-2.92747735977173,22.69702529907227
333,2976745129,-157.78097534179688,81.52478790283203,-82.49913787841797,-9.55066204071045,-0.44297841191292,-1.44603621959686,-0.89442396163940,-2.79041576385498,22.04404258728027
334,2976753462,-158.82881164550781,81.60323333740234,-83.54822540283203,-9.54586315155029,-0.36199244856834,-1.36561036109924,0.16512222588062,-1.97309076786041,21.17748451232910
335,2976761795,-159.85975646972656,81.68421936035156,-84.60419464111328,-9.59415531158447,-0.20877054333687,-1.21206748485565,1.22211968898773,-1.93956184387207,20.53817939758301
336,2976770128,-160.91143798828125,81.75564575195312,-85.66084289550781,-9.52980136871338,-0.12691524624825,-1.41612589359283,0.64841175079346,-1.99414551258087,20.58633422851562
337,2976778461,-161.96244812011719,81.82238006591797,-86.72262573242188,-9.53437900543213,-0.27955716848373,-1.52347040176392,-0.44791623950005,-1.14756917953491,19.68068885803223
338,2976786794,-162.97045898437500,81.87728118896484,-87.72981262207031,-9.61800956726074,-0.35508644580841,-1.42118608951569,-0.04064980149269,-1.17005860805511,18.76669692993164
339,2976795127,-163.96031188964844,81.93773651123047,-88.74553680419922,-9.64334201812744,-0.30317169427872,-1.33399307727814,1.46056234836578,-1.41308629512787,18.39441680908203
340,2976803460,-164.89263916015625,81.99423217773438,-89.69144439697266,-9.59447765350342,-0.14722494781017,-1.35133171081543,1.99246776103973,-2.33760690689087,17.55450248718262
341,2976811793,-165.80961608886719,82.05092620849609,-90.64635467529297,-9.59017086029053,0.08696454018354,-1.39693391323090,3.01401519775391,-1.91171896457672,16.99163055419922
342,2976820126,-166.67829895019531,82.09560394287109,-91.53022003173828,-9.63112354278564,0.20461711287498,-1.40001523494720,1.97189927101135,-1.81031179428101,15.86700820922852
343,2976828459,-167.54463195800781,82.14032745361328,-92.41493988037109,-9.53571128845215,0.29947757720947,-1.41639566421509,0.76882421970367,-1.33211982250214,15.27232360839844
344,2976836792,-168.36174011230469,82.17205810546875,-93.22586059570312,-9.55682563781738,0.39773422479630,-1.40728461742401,-0.11408582329750,-1.00751042366028,14.14593791961670
345,2976845125,-169.18913269042969,82.20462036132812,-94.05690765380859,-9.52422237396240,0.16134168207645,-1.54317712783813,-0.91591405868530,-0.55639261007309,13.94279289245605
346,2976853458,-169.97865295410156,82.22360992431641,-94.83757019042969,-9.56479167938232,-0.11109114438295,-1.55413699150085,-0.63392674922943,-0.03411816433072,13.14037132263184
347,2976861791,-170.70568847656250,82.25250244140625,-95.57994842529297,-9.69865226745605,-0.14801093935966,-1.53004837036133,0.59777224063873,-0.75777155160904,12.32755470275879
348,2976870124,-171.39195251464844,82.27519226074219,-96.27772521972656,-9.66240501403809,-0.08665760606527,-1.54578614234924,1.94052159786224,-1.04951775074005,11.77149677276611
349,2976878457,-172.03047180175781,82.30109405517578,-96.94605255126953,-9.62668323516846,-0.05017038062215,-1.62354981899261,2.42104482650757,-0.88282024860382,10.98444652557373
350,2976886790,-172.61894226074219,82.31901550292969,-97.55364227294922,-9.62129211425781,0.14585158228874,-1.52911293506622,2.78036141395569,-0.97031855583191,10.13074970245361
351,2976895123,-173.15536499023438,82.34429931640625,-98.11798095703125,-9.56708145141602,0.27227017283440,-1.36519396305084,2.32819342613220,-1.24961626529694,9.23020553588867
352,2976903456,-173.65811157226562,82.35995483398438,-98.62553405761719,-9.48027133941650,0.43553808331490,-1.54488289356232,1.43041419982910,-1.07131528854370,8.44525623321533
353,2976911789,-174.13853454589844,82.37499237060547,-99.11886596679688,-9.48685550689697,0.51272159814835,-1.46528995037079,0.59974455833435,-0.32445555925369,7.89619159698486
354,2976920122,-174.57957458496094,82.37826538085938,-99.54356384277344,-9.51730728149414,0.45038032531738,-1.39337992668152,-1.30988633632660,0.09978023916483,6.84165143966675
355,2976928455,-174.97335815429688,82.38784790039062,-99.93157196044922,-9.62640666961670,0.38455805182457,-1.53208136558533,-1.52105009555817,0.05997573211789,6.13774681091309
356,2976936788,-175.34005737304688,82.39083862304688,-100.28102874755859,-9.56944370269775,0.28371283411980,-1.47809684276581,-1.24664473533630,-0.08560276776552,5.57418251037598
357,2976945121,-175.62773132324219,82.39588928222656,-100.56408691406250,-9.58000373840332,0.15344454348087,-1.35329103469849,-1.27589631080627,0.38135755062103,4.41705989837646
358,2976953454,-175.88992309570312,82.39455413818359,-100.80814361572266,-9.62292003631592,0.10741288214922,-1.38051855564117,-1.08162498474121,0.24955947697163,3.82722783088684
359,2976961787,-176.10919189453125,82.40043640136719,-101.02136230468750,-9.67716693878174,0.03623398020864,-1.33998429775238,-1.36659634113312,0.16642850637436,3.31385469436646
360,2976970120,-176.26246643066406,82.39762115478516,-101.15910339355469,-9.67801094055176,0.07865114510059,-1.32240462303162,-0.87380397319794,0.28850591182709,2.07955574989319
361,2976978453,-176.35348510742188,82.40327453613281,-101.24983978271484,-9.65069293975830,0.27554893493652,-1.38896739482880,-0.54010170698166,0.05206092819571,1.36791539192200
362,2976986786,-176.42398071289062,82.39764404296875,-101.30137634277344,-9.59886455535889,0.26230919361115,-1.35298860073090,-1.00779211521149,0.54598015546799,0.70094633102417
363,2976995119,-176.44985961914062,82.40097808837891,-101.30390930175781,-9.58405971527100,0.12584270536900,-1.50409471988678,-3.21312642097473,0.23392200469971,-0.04692527651787
364,2977003452,-176.49098205566406,82.38789367675781,-101.30973052978516,-9.58725738525391,0.07942651957273,-1.54058754444122,-2.96128726005554,1.39212083816528,-0.12220550328493
365,2977011785,-176.48983764648438,82.37465667724609,-101.28736877441406,-9.61305141448975,0.21036715805531,-1.62080359458923,-2.93364953994751,2.19179725646973,-0.56538301706314
366,2977020118,-176.50450134277344,82.34601593017578,-101.26190948486328,-9.56150722503662,0.25624078512192,-1.56036281585693,-3.57059907913208,3.21219158172607,-0.75856548547745
367,2977028451,-176.47828674316406,82.32744598388672,-101.20857238769531,-9.59273147583008,0.05668929219246,-1.58583915233612,-3.60120797157288,2.80474615097046,-1.10200142860413
368,2977036784,-176.46081542968750,82.29306793212891,-101.15686798095703,-9.57988357543945,-0.03547887131572,-1.69085991382599,-2.75009799003601,3.85054993629456,-1.24946236610413
369,2977045117,-176.40757751464844,82.27122497558594,-101.10804748535156,-9.63517475128174,-0.03940299153328,-1.49979555606842,0.18033702671528,3.19577312469482,-1.06063425540924
370,2977053450,-176.33892822265625,82.24147033691406,-101.04158782958984,-9.66530132293701,0.06539452075958,-1.49134993553162,1.54923856258392,3.24915289878845,-1.48081016540527
371,2977061783,-176.22044372558594,82.22370147705078,-100.93459320068359,-9.71743488311768,0.28044354915619,-1.35051965713501,1.09678876399994,2.63689613342285,-1.98338723182678
372,2977070116,-176.14234924316406,82.20976257324219,-100.84050750732422,-9.63984489440918,0.25683102011681,-1.41565775871277,-0.60708296298981,1.32370507717133,-1.82591068744659
373,2977078449,-176.04710388183594,82.19885253906250,-100.73146057128906,-9.54810142517090,0.06747695058584,-1.50859594345093,-1.93751227855682,1.80363929271698,-1.97416615486145
374,2977086782,-175.96220397949219,82.17426300048828,-100.61177062988281,-9.65796470642090,-0.13675346970558,-1.48045325279236,-2.75734686851501,2.56420278549194,-2.37016224861145
375,2977095115,-175.85542297363281,82.15347290039062,-100.47769927978516,-9.73084354400635,-0.29016602039337,-1.43141567707062,-3.52285408973694,2.95159268379211,-2.47904825210571
376,2977103448,-175.78674316406250,82.13877868652344,-100.36774444580078,-9.70461273193359,-0.37337693572044,-1.40911746025085,-3.49332070350647,1.37841725349426,-2.13909626007080
377,2977111781,-175.68653869628906,82.13143920898438,-100.24759674072266,-9.66009712219238,-0.39105549454689,-1.42723727226257,-2.64887022972107,1.35477530956268,-2.14603734016418
378,2977120114,-175.58593750000000,82.11952972412109,-100.11056518554688,-9.84581851959229,-0.27167356014252,-1.22678744792938,-3.01774120330811,1.01320946216583,-2.54984593391418
379,2977128447,-175.53727722167969,82.13403320312500,-100.03010559082031,-9.95254135131836,-0.20375531911850,-1.33615136146545,-4.11236572265625,-1.20978593826294,-1.29902601242065
380,2977136780,-175.63969421386719,82.13620758056641,-100.06883239746094,-9.75756454467773,-0.65161621570587,-1.62888848781586,-6.47402286529541,-0.42304468154907,0.49137064814568
381,2977145113,-175.74368286132812,82.13308715820312,-100.11948394775391,-9.77176952362061,-1.11162436008453,-1.73897659778595,-6.85004043579102,1.04722523689270,0.68519353866577
382,2977153446,-175.86404418945312,82.11449432373047,-100.21479797363281,-9.87125778198242,-1.08707869052887,-1.78288233280182,-1.85546958446503,2.11756730079651,1.28712809085846
383,2977161779,-175.99302673339844,82.11791229248047,-100.37043762207031,-9.72331619262695,-0.73972326517105,-1.53835141658783,2.63576889038086,0.38430318236351,2.46884083747864
384,2977170112,-176.14454650878906,82.11392211914062,-100.54529571533203,-9.67917156219482,-0.54883366823196,-1.39082610607147,3.97021961212158,0.43033200502396,2.86127686500549
385,2977178445,-176.29660034179688,82.11392211914062,-100.74100494384766,-9.68459320068359,-0.27779009938240,-1.47583281993866,4.62635326385498,0.81989884376526,3.10007810592651
386,2977186778,-176.47306823730469,82.10166168212891,-100.93953704833984,-9.61576557159424,-0.05065468326211,-1.35370087623596,3.71943044662476,1.42718684673309,3.25250840187073
387,2977195111,-176.67933654785156,82.10002136230469,-101.16743469238281,-9.64300632476807,-0.08163867890835,-1.18317162990570,1.96093618869781,1.03836274147034,3.62504220008850
388,2977203444,-176.90907287597656,82.09493255615234,-101.38771057128906,-9.74285030364990,-0.18713614344597,-1.26230788230896,-0.20947319269180,0.55819809436798,3.67081403732300
389,2977211777,-177.16540527343750,82.09667205810547,-101.64572143554688,-9.73274230957031,-0.27999451756477,-1.47457921504974,-0.47808972001076,0.61283344030380,4.14734172821045
390,2977220110,-177.43717956542969,82.09934997558594,-101.88902282714844,-9.84989261627197,-0.40386915206909,-1.40622889995575,-2.32113647460938,-0.33400964736938,4.13381767272949
391,2977228443,-177.75514221191406,82.11344909667969,-102.19716644287109,-9.87157726287842,-0.49180564284325,-1.34947109222412,-1.91089892387390,-0.88174450397491,5.02970075607300
392,2977236776,-178.07890319824219,82.11848449707031,-102.50519561767578,-9.74442577362061,-0.58852970600128,-1.50269412994385,-1.07136666774750,-0.62368100881577,5.20246934890747
393,2977245109,-178.39570617675781,82.13696289062500,-102.82151031494141,-9.80230903625488,-0.41848078370094,-1.47363877296448,-0.79324728250504,-1.45773172378540,5.14908885955811
394,2977253442,-178.77494812011719,82.14667510986328,-103.18312072753906,-9.77734947204590,-0.40068593621254,-1.51347053050995,-1.19346976280212,-1.23406815528870,6.15009260177612
395,2977261775,-179.17382812500000,82.15597534179688,-103.57977294921875,-9.75236415863037,-0.49686834216118,-1.49965858459473,-1.08819508552551,-0.39581674337387,6.40436553955078
396,2977270108,-179.59085083007812,82.15177154541016,-103.98242187500000,-9.67876148223877,-0.56168985366821,-1.55107462406158,-0.82298529148102,0.36089175939560,6.82577037811279
397,2977278441,179.95661926269531,82.15106964111328,-104.44792175292969,-9.62827491760254,-0.48393902182579,-1.59228134155273,0.65458458662033,0.70017802715302,7.51264286041260
398,2977286774,179.49937438964844,82.14252471923828,-104.91211700439453,-9.71353530883789,-0.38853365182877,-1.48706936836243,1.60881757736206,0.77274316549301,7.90026378631592
399,2977295107,179.01544189453125,82.13880157470703,-105.41461181640625,-9.69582557678223,-0.39452490210533,-1.41462206840515,1.29081654548645,0.93593132495880,8.13785934448242
400,2977303440,178.54942321777344,82.13071441650391,-105.88845062255859,-9.69205570220947,-0.39048731327057,-1.48553764820099,1.79849064350128,0.57592326402664,8.14521121978760
401,2977311773,178.08467102050781,82.12960052490234,-106.38134765625000,-9.69138526916504,-0.25042733550072,-1.31979620456696,2.45029592514038,0.49042296409607,7.98722267150879
402,2977320106,177.63793945312500,82.12855529785156,-106.83817291259766,-9.73340797424316,-0.11658062040806,-1.23449838161469,1.96739113330841,-0.37609389424324,7.87941408157349
403,2977328439,177.19503784179688,82.12640380859375,-107.29520416259766,-9.62624549865723,0.03628927096725,-1.46132636070251,0.81013977527618,0.51324522495270,7.40470361709595
404,2977336772,176.81347656250000,82.11337280273438,-107.66730499267578,-9.68267440795898,0.08218640834093,-1.53012466430664,-0.37801489233971,1.01758944988251,6.57546854019165
405,2977345105,176.41304016113281,82.11350250244141,-108.06609344482422,-9.72618961334229,0.06545994430780,-1.54909038543701,-1.01837074756622,0.18712478876114,6.44204378128052
406,2977353438,176.03692626953125,82.10539245605469,-108.42200469970703,-9.64417266845703,0.15332579612732,-1.64932441711426,-1.55404114723206,0.35994401574135,6.30575132369995
407,2977361771,175.59970092773438,82.10391998291016,-108.85469055175781,-9.75881958007812,0.10734160989523,-1.77135920524597,-1.39349138736725,0.24985408782959,7.01803159713745
408,2977370104,175.14506530761719,82.09639739990234,-109.30166625976562,-9.74910640716553,-0.08805108815432,-1.61982417106628,-0.28892862796783,0.05441744998097,7.78440999984741
409,2977378437,174.66392517089844,82.09634399414062,-109.80081939697266,-9.67406463623047,-0.18724703788757,-1.66671764850616,1.23039269447327,-0.13980248570442,8.09316253662109
410,2977386770,174.20767211914062,82.08644104003906,-110.27785491943359,-9.63036727905273,0.02762356959283,-1.60684931278229,3.25030589103699,0.17777560651302,8.35056114196777
411,2977395103,173.75288391113281,82.08116149902344,-110.76694488525391,-9.63700675964355,0.26510024070740,-1.57511854171753,3.19492769241333,0.36586093902588,7.99695634841919
412,2977403436,173.33570861816406,82.06803894042969,-111.18922424316406,-9.61035251617432,0.35589084029198,-1.57186245918274,1.52259981632233,0.47907587885857,7.54376411437988
413,2977411769,172.91860961914062,82.06753540039062,-111.61775207519531,-9.58721351623535,0.40225386619568,-1.58663439750671,0.53127759695053,-0.20212192833424,6.94751548767090
414,2977420102,172.52951049804688,82.05676269531250,-111.99688720703125,-9.54396915435791,0.37177771329880,-1.52819681167603,-0.26254591345787,0.18868727982044,6.79613590240479
415,2977428435,172.15930175781250,82.04930114746094,-112.35810852050781,-9.60971641540527,0.29699620604515,-1.46623253822327,-1.85147392749786,0.66849315166473,5.95183944702148
416,2977436768,171.81892395019531,82.03878021240234,-112.66912078857422,-9.64674758911133,0.28370839357376,-1.39752316474915,-2.47968864440918,0.21202184259892,5.66575431823730
417,2977445101,171.46162414550781,82.03580474853516,-113.01820373535156,-9.64092826843262,0.34150421619415,-1.49431347846985,-1.73551797866821,0.10203430801630,5.69106054306030
418,2977453434,171.16450500488281,82.02642059326172,-113.29679870605469,-9.73964786529541,0.25876438617706,-1.54103589057922,-1.25238227844238,0.09043104946613,5.09424829483032
419,2977461767,170.85876464843750,82.02777099609375,-113.60527801513672,-9.77000427246094,0.24891237914562,-1.47634088993073,-0.37647804617882,-0.38567355275154,4.94007682800293
420,2977470100,170.55146789550781,82.02809143066406,-113.91247558593750,-9.76953983306885,0.30603766441345,-1.32738220691681,1.00788187980652,-1.17979168891907,5.38220405578613
421,2977478433,170.20623779296875,82.02947235107422,-114.26859283447266,-9.62461471557617,0.27726930379868,-1.38159203529358,0.54596745967865,-0.57984226942062,5.71089887619019
422,2977486766,169.91999816894531,82.02169036865234,-114.54968261718750,-9.63122558593750,0.28938275575638,-1.44063127040863,0.21043373644352,-0.21367394924164,5.06924915313721
423,2977495099,169.64108276367188,82.01633453369141,-114.83015441894531,-9.68215179443359,0.33435311913490,-1.44355654716492,-0.47727003693581,0.38494354486465,4.61188173294067
424,2977503432,169.39524841308594,82.00365447998047,-115.05397796630859,-9.63037395477295,0.36841610074043,-1.42234098911285,-1.56213533878326,0.50148826837540,4.26419401168823
425,2977511765,169.15280151367188,81.99771118164062,-115.28352355957031,-9.62461471557617,0.37666937708855,-1.45641505718231,-2.14955949783325,0.56843113899231,3.79958987236023
426,2977520098,168.95352172851562,81.98291015625000,-115.46201324462891,-9.63108539581299,0.28972539305687,-1.54867506027222,-1.68070340156555,0.88121920824051,3.52617025375366
427,2977528431,168.76271057128906,81.97737884521484,-115.65030670166016,-9.59568405151367,0.31286719441414,-1.58731400966644,-0.85958814620972,0.61813557147980,3.12202954292297
428,2977536764,168.59403991699219,81.96617889404297,-115.80976867675781,-9.59134006500244,0.43351289629936,-1.63182580471039,-0.13311716914177,0.47454211115837,3.14956474304199
429,2977545097,168.42263793945312,81.96476745605469,-115.98366546630859,-9.66271018981934,0.50401872396469,-1.64900386333466,-0.23944185674191,0.15833440423012,2.79186177253723
430,2977553430,168.24977111816406,81.95926666259766,-116.13671112060547,-9.62635803222656,0.50037604570389,-1.68950283527374,-1.26485657691956,-0.20949883759022,2.91947197914124
431,2977561763,168.04461669921875,81.96750640869141,-116.34208679199219,-9.63442325592041,0.45189869403839,-1.68960857391357,-0.54768353700638,-1.10402476787567,3.06882882118225
432,2977570096,167.86495971679688,81.96965026855469,-116.50292205810547,-9.66600227355957,0.41364145278931,-1.66359758377075,-1.36106348037720,-1.15205144882202,2.80123662948608
433,2977578429,167.69311523437500,81.97843170166016,-116.67562866210938,-9.66016578674316,0.41969868540764,-1.72216105461121,-0.41861340403557,-1.06975305080414,2.50926017761230
434,2977586762,167.55355834960938,81.98168945312500,-116.80689239501953,-9.63657093048096,0.36742419004440,-1.60016417503357,0.19278553128242,-1.22520565986633,2.29563736915588
435,2977595095,167.42301940917969,81.99364471435547,-116.95269012451172,-9.66066741943359,0.31502515077591,-1.43209719657898,1.32713758945465,-1.36142218112946,1.97066950798035
436,2977603428,167.32586669921875,81.99633789062500,-117.05720520019531,-9.67265319824219,0.32535377144814,-1.44771826267242,1.57859253883362,-1.06665372848511,1.78547859191895
437,2977611761,167.22988891601562,82.00279235839844,-117.16770172119141,-9.60510349273682,0.35361999273300,-1.39617276191711,1.27649831771851,-0.60385566949844,1.52846562862396
438,2977620094,167.14671325683594,82.00073242187500,-117.25003051757812,-9.62180805206299,0.28615385293961,-1.29790043830872,0.85527217388153,-0.45521619915962,1.57001185417175
439,2977628427,167.05453491210938,82.00323486328125,-117.35141754150391,-9.69049263000488,0.12096887826920,-1.35879695415497,0.66483026742935,-0.10642715543509,1.48645830154419
440,2977636760,166.98246765136719,81.99845123291016,-117.40843963623047,-9.70234489440918,0.15244139730930,-1.32238209247589,-0.58683490753174,-0.02470492757857,1.26308906078339
441,2977645093,166.89797973632812,81.99736785888672,-117.48928070068359,-9.72517681121826,0.27013427019119,-1.44182717800140,-0.85815370082855,0.37810450792313,1.24673449993134
442,2977653426,166.82679748535156,81.99134063720703,-117.53569793701172,-9.73237895965576,0.40630337595940,-1.50005280971527,-1.90802979469299,0.16076773405075,1.11548709869385
443,2977661759,166.76687622070312,81.98913574218750,-117.57258605957031,-9.69384956359863,0.44759428501129,-1.47271549701691,-3.12296414375305,0.67835456132889,0.56595927476883
444,2977670092,166.73454284667969,81.98513793945312,-117.56135559082031,-9.65934085845947,0.43660938739777,-1.51491916179657,-3.81313920021057,0.14229987561703,0.15723295509815
445,2977678425,166.67712402343750,81.99016571044922,-117.59407043457031,-9.70736789703369,0.37523907423019,-1.54595899581909,-3.31181788444519,-0.15009941160679,0.30059584975243
446,2977686758,166.63887023925781,81.99241638183594,-117.60383605957031,-9.71607112884521,0.27539691329002,-1.54373586177826,-2.10969066619873,-0.67298835515976,0.29931515455246
447,2977695091,166.58216857910156,81.99994659423828,-117.65932464599609,-9.62977218627930,0.11165587604046,-1.65727078914642,-0.52970236539841,-0.54102385044098,0.59700375795364
448,2977703424,166.53181457519531,81.99806213378906,-117.70256042480469,-9.62281227111816,-0.01146600767970,-1.59246599674225,0.53985846042633,-0.31185328960419,0.97599208354950
449,2977711757,166.45423889160156,82.00316619873047,-117.79216003417969,-9.63733291625977,-0.04150079563260,-1.67124748229980,1.02371120452881,-0.39848059415817,1.21451163291931
450,2977720090,166.38047790527344,81.99786376953125,-117.86531066894531,-9.62208080291748,-0.01244399324059,-1.68687951564789,1.22450125217438,-0.06024467572570,1.57354640960693
451,2977728423,166.26591491699219,82.00242614746094,-117.98750305175781,-9.65148448944092,0.03203382715583,-1.53827917575836,0.46631997823715,-0.45777764916420,1.76004385948181
452,2977736756,166.16110229492188,82.00080871582031,-118.08181762695312,-9.52806091308594,0.29204288125038,-1.46271371841431,0.06753192842007,-0.59980851411819,1.85248541831970
453,2977745089,166.04962158203125,81.99884033203125,-118.19062042236328,-9.69409942626953,0.57667768001556,-1.35901618003845,-0.75464659929276,0.34680393338203,1.72743666172028
454,2977753422,165.98777770996094,81.98352813720703,-118.22785949707031,-9.91911220550537,0.60329103469849,-1.18848013877869,-1.60462939739227,1.21256506443024,1.33128714561462
455,2977761755,165.92304992675781,81.97938537597656,-118.26943969726562,-9.88483142852783,0.51043802499771,-1.43475651741028,-3.13528490066528,0.85988259315491,0.70325160026550
456,2977770088,165.89282226562500,81.96862030029297,-118.25293731689453,-9.83425426483154,0.36426672339439,-1.50472819805145,-4.44537639617920,0.92481476068497,0.26675948500633
457,2977778421,165.82722473144531,81.96598815917969,-118.27491760253906,-9.71551036834717,0.05608556792140,-1.44828665256500,-5.55611228942871,0.77005362510681,0.34467798471451
458,2977786754,165.73934936523438,81.95677947998047,-118.31043243408203,-9.62073421478271,-0.27149793505669,-1.53710114955902,-5.06593227386475,0.53217417001724,1.07209658622742
459,2977795087,165.57496643066406,81.95124053955078,-118.44231414794922,-9.61417675018311,-0.50700944662094,-1.64595043659210,-4.35534238815308,0.64544028043747,2.22099733352661
460,2977803420,165.37345886230469,81.94114685058594,-118.61094665527344,-9.68877983093262,-0.45641165971756,-1.56559312343597,-2.96651268005371,0.06007819250226,3.30017662048340
461,2977811753,165.11450195312500,81.93491363525391,-118.85596466064453,-9.63251590728760,-0.20432771742344,-1.50061106681824,-2.26447772979736,0.21204747259617,4.08661079406738
462,2977820086,164.86245727539062,81.92105102539062,-119.07895660400391,-9.57551860809326,-0.08032228797674,-1.50599396228790,-2.34467601776123,0.22954198718071,4.42556381225586
463,2977828419,164.57759094238281,81.91090393066406,-119.34696960449219,-9.54293346405029,-0.19946342706680,-1.28375649452209,-2.64287686347961,0.52502775192261,4.59269666671753
464,2977836752,164.35307312011719,81.89698028564453,-119.53999328613281,-9.42813014984131,0.12956759333611,-1.20829916000366,-2.04276108741760,0.29567793011665,4.07441854476929
465,2977845085,164.08564758300781,81.87924194335938,-119.78987884521484,-9.81476211547852,0.87693834304810,-1.22219693660736,-2.69333672523499,1.43758618831635,4.56236886978149
466,2977853418,163.84124755859375,81.84616088867188,-119.98023986816406,-10.24151325225830,0.78751057386398,-1.32932591438293,-5.58756732940674,2.53292798995972,4.60934686660767
467,2977861751,163.63122558593750,81.83283233642578,-120.14569091796875,-10.19327449798584,0.25968337059021,-1.52075338363647,-5.84473276138306,1.28246617317200,3.06452536582947
468,2977870084,163.52178955078125,81.82466125488281,-120.21322631835938,-9.90335464477539,0.33069571852684,-1.40249419212341,-3.83004570007324,0.24314312636852,1.75814843177795
469,2977878417,163.41763305664062,81.82850646972656,-120.29707336425781,-9.56838512420654,0.79733711481094,-1.56715941429138,-2.82419967651367,-0.31382554769516,1.15257644653320
470,2977886750,163.33006286621094,81.81120300292969,-120.34066772460938,-9.17917442321777,0.95729315280914,-1.81505119800568,-4.01152276992798,1.40846288204193,1.69616186618805
471,2977895083,163.20089721679688,81.78852844238281,-120.42731475830078,-8.97963809967041,0.61592471599579,-1.92374980449677,-5.47642612457275,2.72575187683105,2.12302327156067
472,2977903416,163.10345458984375,81.75337982177734,-120.47126007080078,-9.27160835266113,0.36159360408783,-1.78421175479889,-5.10740184783936,3.41216158866882,2.28680038452148
473,2977911749,163.00712585449219,81.72284698486328,-120.54463195800781,-9.51175308227539,0.44568490982056,-1.75612103939056,-3.13531041145325,3.66579365730286,2.18938946723938
474,2977920082,162.96231079101562,81.68991088867188,-120.57237243652344,-9.53152847290039,0.57750934362411,-1.58926761150360,-0.60242116451263,3.19415903091431,1.96252429485321
475,2977928415,162.97468566894531,81.66177368164062,-120.57074737548828,-9.52075481414795,0.71803343296051,-1.42287564277649,1.01733326911926,3.77450084686279,0.88121926784515
476,2977936748,163.10359191894531,81.62567138671875,-120.43726348876953,-9.47481727600098,1.15465307235718,-1.27769923210144,0.79799878597260,4.37538528442383,-0.66807049512863
477,2977945081,163.26570129394531,81.59252929687500,-120.27028656005859,-9.54827976226807,1.45313978195190,-1.63251566886902,-0.65031975507736,5.18366813659668,-1.73272609710693
478,2977953414,163.50852966308594,81.54957580566406,-119.97637176513672,-10.16081237792969,1.18008410930634,-1.67450571060181,-4.58699703216553,5.97940015792847,-3.23902249336243
479,2977961747,163.77857971191406,81.52455902099609,-119.66987609863281,-10.19793796539307,0.54543489217758,-1.66355514526367,-4.23900270462036,4.93825864791870,-4.42934226989746
480,2977970080,164.09179687500000,81.51999664306641,-119.33291625976562,-9.85395812988281,0.32505190372467,-1.40671753883362,-1.21380746364594,1.73294377326965,-5.41669416427612
481,2977978413,164.38034057617188,81.52989196777344,-119.06262969970703,-9.62804222106934,0.58404827117920,-1.60460662841797,2.26338911056519,0.67740690708160,-5.00835132598877
482,2977986746,164.67221069335938,81.53229522705078,-118.78883361816406,-9.18043041229248,0.66064983606339,-1.97511029243469,3.91356062889099,0.56334662437439,-4.55564594268799
483,2977995079,164.98835754394531,81.53456878662109,-118.51673126220703,-9.18174648284912,0.54041743278503,-1.84736585617065,5.36834669113159,1.51486444473267,-4.79544639587402
484,2978003412,165.30543518066406,81.52981567382812,-118.22493743896484,-9.44104003906250,0.70773470401764,-1.57363712787628,5.10170269012451,1.40969240665436,-4.62918424606323
485,2978011745,165.61824035644531,81.53144073486328,-117.94149780273438,-9.56100177764893,0.74718320369720,-1.56486475467682,3.62273621559143,1.58517527580261,-4.98176383972168
486,2978020078,165.99856567382812,81.52608489990234,-117.56108093261719,-9.61933898925781,0.76882249116898,-1.38977289199829,1.91132152080536,1.79195928573608,-6.21501302719116
487,2978028411,166.42832946777344,81.52445983886719,-117.13296508789062,-9.51423645019531,0.86923342943192,-1.38777017593384,0.49721077084541,2.52060770988464,-7.38719797134399
488,2978036744,166.96588134765625,81.50206756591797,-116.56366729736328,-9.30135154724121,1.02339899539948,-1.42764854431152,-1.41669785976410,4.46103954315186,-9.05061149597168
489,2978045077,167.53913879394531,81.47764587402344,-115.94812011718750,-9.34812927246094,0.93766683340073,-1.44366776943207,-4.52134799957275,5.79410696029663,-10.09605693817139
490,2978053410,168.12278747558594,81.44379425048828,-115.28836059570312,-9.75131416320801,0.58141887187958,-1.59051287174225,-7.14437484741211,5.98985147476196,-10.62916660308838
491,2978061743,168.68518066406250,81.42333984375000,-114.66310119628906,-10.10477352142334,0.07702920585871,-1.74797606468201,-6.97268199920654,5.16617393493652,-10.53610897064209
492,2978070076,169.19859313964844,81.40806579589844,-114.08843994140625,-10.02182674407959,-0.18552815914154,-1.65393674373627,-4.43712854385376,3.31879830360413,-9.62995338439941
493,2978078409,169.61708068847656,81.40757751464844,-113.66510009765625,-9.87093257904053,-0.31585738062859,-1.48436450958252,-0.26643928885460,1.96946585178375,-7.52999687194824
494,2978086742,170.00981140136719,81.40271759033203,-113.26911163330078,-9.39537143707275,-0.57637214660645,-1.82194125652313,2.70725822448730,1.36840212345123,-6.66938400268555
495,2978095075,170.42436218261719,81.40335083007812,-112.90158843994141,-9.54507541656494,-0.59592503309250,-1.73148953914642,5.88716316223145,1.56565737724304,-6.58864784240723
496,2978103408,170.80128479003906,81.39850616455078,-112.55323028564453,-9.63840579986572,-0.11554384231567,-1.53278732299805,5.40017366409302,1.12223660945892,-5.94625616073608
497,2978111741,171.14823913574219,81.39184570312500,-112.23497772216797,-9.56269645690918,0.18127678334713,-1.57567155361176,3.62165999412537,2.19958400726318,-5.59788799285889
498,2978120074,171.48420715332031,81.36682891845703,-111.88362884521484,-9.76355171203613,0.21397042274475,-1.59091222286224,0.08961139619350,3.47256040573120,-5.61420488357544
499,2978128407,171.82301330566406,81.34433746337891,-111.52532958984375,-9.71567153930664,0.24186703562737,-1.47448837757111,-2.09386134147644,4.12149715423584,-6.08094835281372
500,2978136740,172.19508361816406,81.32009124755859,-111.11180877685547,-9.65013980865479,0.27746212482452,-1.24629211425781,-2.82486629486084,3.48398470878601,-6.79801940917969
501,2978145073,172.48410034179688,81.31495666503906,-110.79689025878906,-9.71387290954590,0.19862207770348,-1.38711810112000,-2.92296838760376,1.87351477146149,-5.65280532836914
502,2978153406,172.74856567382812,81.30062103271484,-110.49137115478516,-9.61800384521484,-0.22132387757301,-1.78685331344604,-2.65314817428589,2.01449537277222,-5.03481101989746
503,2978161739,172.99836730957031,81.30290222167969,-110.23013305664062,-9.73413372039795,-0.48058044910431,-1.82710087299347,-1.26334512233734,0.81577491760254,-4.81959962844849
504,2978170072,173.18679809570312,81.30261230468750,-110.03285980224609,-9.79500961303711,-0.59838181734085,-1.81923508644104,0.20935796201229,0.05808028206229,-3.42101192474365
505,2978178405,173.34049987792969,81.31144714355469,-109.89443206787109,-9.76896286010742,-0.67492830753326,-1.85971128940582,1.78568351268768,-0.25224897265434,-2.69615435600281
506,2978186738,173.47854614257812,81.31234741210938,-109.77331542968750,-9.76111412048340,-0.60349136590958,-1.87422478199005,3.85487866401672,-0.26889824867249,-1.89819431304932
507,2978195071,173.56124877929688,81.31090545654297,-109.73736572265625,-9.79280281066895,-0.49864399433136,-1.60096609592438,5.42231512069702,0.74630910158157,-0.70615881681442
508,2978203404,173.63130187988281,81.30276489257812,-109.69679260253906,-9.78875446319580,-0.50443536043167,-1.49006080627441,5.23604869842529,0.59984695911407,-0.25906234979630
509,2978211737,173.65669250488281,81.29627227783203,-109.71883392333984,-9.67241382598877,-0.42345169186592,-1.50033378601074,5.42661857604980,1.23472142219543,0.40620332956314
510,2978220070,173.67098999023438,81.28089141845703,-109.73193359375000,-9.73801708221436,-0.33567237854004,-1.34888589382172,4.65606594085693,1.38272047042847,0.82371538877487
511,2978228403,173.64561462402344,81.27251434326172,-109.79281616210938,-9.75194263458252,-0.27330687642097,-1.41373908519745,3.94268417358398,1.37478005886078,1.13436484336853
512,2978236736,173.61442565917969,81.25574493408203,-109.83713531494141,-9.76120281219482,-0.21079088747501,-1.46792984008789,2.74386119842529,1.50154495239258,1.43307816982269
513,2978245069,173.54212951660156,81.25239562988281,-109.92696380615234,-9.87921428680420,-0.18865138292313,-1.31168472766876,1.75689327716827,0.71288263797760,1.59949386119843
514,2978253402,173.46441650390625,81.25245666503906,-109.99855804443359,-9.85150432586670,-0.06211860105395,-1.38103401660919,1.14094769954681,-0.55593138933182,1.84964239597321
515,2978261735,173.30070495605469,81.26473236083984,-110.17901611328125,-9.77544212341309,-0.17726583778858,-1.45763742923737,1.53832685947418,-1.33542382717133,3.02738499641418
516,2978270068,173.14277648925781,81.27436065673828,-110.33184814453125,-9.77217674255371,-0.36567872762680,-1.60303831100464,0.82873570919037,-1.85024428367615,3.15253591537476
517,2978278401,172.94548034667969,81.28672790527344,-110.54220581054688,-9.74642276763916,-0.39736068248749,-1.83539330959320,1.06341326236725,-1.44103121757507,3.54527878761292
518,2978286734,172.74406433105469,81.28855133056641,-110.74490356445312,-9.76489162445068,-0.41328829526901,-1.74025738239288,1.61550259590149,-1.03817057609558,4.20113182067871
519,2978295067,172.48748779296875,81.29627227783203,-111.02512359619141,-9.73166656494141,-0.40182304382324,-1.77424621582031,2.22855377197266,-1.08412241935730,4.85713768005371
520,2978303400,172.22694396972656,81.29753112792969,-111.29580688476562,-9.72595596313477,-0.37825104594231,-1.64616203308105,2.62731647491455,-1.17359316349030,5.47743797302246
521,2978311733,171.92018127441406,81.30159759521484,-111.63344573974609,-9.70836067199707,-0.30078196525574,-1.61831152439117,3.02477192878723,-0.83323103189468,5.93247413635254
522,2978320066,171.62741088867188,81.29884338378906,-111.93165588378906,-9.71390628814697,-0.17091043293476,-1.55433738231659,2.43469715118408,-0.83656090497971,6.13405847549438
523,2978328399,171.29959106445312,81.29856872558594,-112.28262329101562,-9.69474792480469,0.00202206033282,-1.52556824684143,2.08493471145630,-0.41628250479698,6.23743724822998
524,2978336732,170.97949218750000,81.29202270507812,-112.60168457031250,-9.67047882080078,0.19257278740406,-1.51630878448486,0.83311587572098,-0.49384242296219,6.49122381210327
525,2978345065,170.62744140625000,81.29331207275391,-112.96169281005859,-9.67345523834229,0.21229216456413,-1.58318603038788,0.24908560514450,-0.70813113451004,6.36412525177002
526,2978353398,170.31529235839844,81.28880310058594,-113.27275848388672,-9.60893440246582,0.25454449653625,-1.62718653678894,-0.25109636783600,-0.76105016469955,6.14963197708130
527,2978361731,169.99517822265625,81.28753662109375,-113.60116577148438,-9.55050563812256,0.34130343794823,-1.57154619693756,0.33115360140800,-0.38523808121681,5.83993053436279
528,2978370064,169.72149658203125,81.27942657470703,-113.87570190429688,-9.53072834014893,0.40200129151344,-1.64517271518707,0.77755850553513,-0.28769907355309,5.67832994461060
529,2978378397,169.44439697265625,81.27676391601562,-114.16550445556641,-9.56870365142822,0.44100731611252,-1.63266575336456,0.90993285179138,-0.16190758347511,5.17626523971558
530,2978386730,169.22486877441406,81.26140594482422,-114.38610839843750,-9.57845973968506,0.51144987344742,-1.79274070262909,1.31740415096283,0.70706814527512,4.93272495269775
531,2978395063,168.99459838867188,81.25349426269531,-114.63529968261719,-9.56801414489746,0.50019377470016,-1.62599992752075,1.71562862396240,0.55292171239853,4.57691812515259
532,2978403396,168.82276916503906,81.24088287353516,-114.82041168212891,-9.59355640411377,0.55334550142288,-1.68430101871490,2.10232686996460,0.44685319066048,4.11350536346436
533,2978411729,168.63401794433594,81.23130798339844,-115.03044128417969,-9.63759994506836,0.55989629030228,-1.67267119884491,2.06177949905396,0.86193192005157,3.93028688430786
534,2978420062,168.49383544921875,81.22300720214844,-115.17660522460938,-9.70236873626709,0.41529127955437,-1.47342157363892,1.72769284248352,0.04681000858545,3.36449360847473
535,2978428395,168.33493041992188,81.22933959960938,-115.35357666015625,-9.67011547088623,0.45935872197151,-1.50952243804932,1.72362041473389,-0.90828078985214,2.96091628074646
536,2978436728,168.22601318359375,81.23159790039062,-115.46002960205078,-9.58851718902588,0.59865754842758,-1.56668889522552,1.06915104389191,-1.05371832847595,2.42229986190796
537,2978445061,168.10340881347656,81.23908996582031,-115.58496856689453,-9.58556842803955,0.54868179559708,-1.55187809467316,-0.09408108144999,-0.86678570508957,1.99121212959290
538,2978453394,168.03781127929688,81.23926544189453,-115.62920379638672,-9.55779743194580,0.60748589038849,-1.65165543556213,-1.03709483146667,-0.57985508441925,1.34217321872711
539,2978461727,167.97364807128906,81.24348449707031,-115.68130493164062,-9.52249622344971,0.70393788814545,-1.69515323638916,-1.72135341167450,-0.21459604799747,0.76608324050903
540,2978470060,167.98056030273438,81.23599243164062,-115.64268493652344,-9.45232295989990,0.84297692775726,-1.66841244697571,-2.49226498603821,0.64666980504990,-0.02392369322479
541,2978478393,168.00714111328125,81.22537231445312,-115.60044860839844,-9.39388561248779,0.94466882944107,-1.66918432712555,-2.01230549812317,1.88368356227875,-0.54916918277740
542,2978486726,168.10055541992188,81.20399475097656,-115.47109985351562,-9.48628234863281,0.95254492759705,-1.68603610992432,-2.86551570892334,2.60585141181946,-1.35437822341919
543,2978495059,168.18904113769531,81.18517303466797,-115.34719848632812,-9.69749355316162,0.84894120693207,-1.68857705593109,-4.26525688171387,3.15481567382812,-1.81909751892090
544,2978503392,168.33726501464844,81.16259765625000,-115.14954376220703,-9.69697761535645,0.47859242558479,-1.61914968490601,-4.17250776290894,2.99628925323486,-2.60153532028198
545,2978511725,168.50721740722656,81.15133666992188,-114.95490264892578,-9.54227352142334,0.34629362821579,-1.65477013587952,-2.87535119056702,2.51684188842773,-3.30405688285828
546,2978520058,168.70246887207031,81.13610076904297,-114.73163604736328,-9.56509876251221,0.34581053256989,-1.63268506526947,-1.63385534286499,2.21218609809875,-3.31437969207764
547,2978528391,168.89385986328125,81.13056182861328,-114.52762603759766,-9.57577610015869,0.34238255023956,-1.60440254211426,-1.40852701663971,1.85530328750610,-3.62828230857849
548,2978536724,169.12234497070312,81.11811828613281,-114.28464508056641,-9.64721775054932,0.36700782179832,-1.68533730506897,-0.72490847110748,1.92400050163269,-3.88375878334045
549,2978545057,169.35325622558594,81.11460113525391,-114.03784179687500,-9.61695957183838,0.50916451215744,-1.60791742801666,-1.74358654022217,1.72905063629150,-4.47257804870605
550,2978553390,169.61775207519531,81.10119628906250,-113.74209594726562,-9.53895568847656,0.65923357009888,-1.45302379131317,-2.65450572967529,2.18808341026306,-4.85996818542480
551,2978561723,169.87664794921875,81.09461975097656,-113.45205688476562,-9.49171352386475,0.76180458068848,-1.46706581115723,-3.49506235122681,2.20903539657593,-5.21262454986572
552,2978570056,170.15037536621094,81.08081817626953,-113.12740325927734,-9.57660961151123,0.71311414241791,-1.56903266906738,-4.65963888168335,2.28951549530029,-5.39781570434570
553,2978578389,170.43861389160156,81.05916595458984,-112.79164886474609,-9.74845409393311,0.42205372452736,-1.68367815017700,-5.39512634277344,4.08115482330322,-5.78056907653809
554,2978586722,170.76910400390625,81.03244018554688,-112.39953613281250,-9.84942626953125,0.02435516566038,-1.68779420852661,-5.46981811523438,3.97713541984558,-6.42735576629639
555,2978595055,171.11228942871094,81.01447296142578,-112.01881408691406,-9.69723987579346,-0.18354111909866,-1.69366955757141,-4.12834930419922,3.71420526504517,-6.75432062149048
556,2978603388,171.45785522460938,80.98545837402344,-111.63651275634766,-9.49633884429932,-0.22544834017754,-1.74055063724518,-2.11965489387512,4.16278696060181,-6.22920322418213
557,2978611721,171.78494262695312,80.96289062500000,-111.29018402099609,-9.48321723937988,-0.03846529871225,-1.85130500793457,-1.96817243099213,4.09693336486816,-6.10656166076660
558,2978620054,172.10060119628906,80.93456268310547,-110.92375946044922,-9.50764083862305,0.30437168478966,-1.89439547061920,-3.67128896713257,3.94611716270447,-5.98007965087891
559,2978628387,172.38716125488281,80.91159057617188,-110.58330535888672,-9.53398418426514,0.48589920997620,-1.89955270290375,-6.13227987289429,4.05815410614014,-6.06714296340942
560,2978636720,172.68876647949219,80.88214111328125,-110.20503234863281,-9.53001594543457,0.49538528919220,-1.75714778900146,-7.24603748321533,4.05108404159546,-6.33937120437622
561,2978645053,172.97119140625000,80.85110473632812,-109.85663604736328,-9.52008438110352,0.52328705787659,-1.63626480102539,-7.56119441986084,4.98100852966309,-6.17346620559692
562,2978653386,173.26387023925781,80.80593109130859,-109.48277282714844,-9.56808757781982,0.36491137742996,-1.63432717323303,-7.07183456420898,5.83211851119995,-6.03830003738403
563,2978661719,173.57917785644531,80.76526641845703,-109.10826873779297,-9.67002391815186,0.12845464050770,-1.69288790225983,-6.68162727355957,6.14071846008301,-6.63782739639282
564,2978670052,173.91722106933594,80.71803283691406,-108.70106506347656,-9.76406669616699,-0.06374289095402,-1.69850325584412,-6.20883989334106,6.09353733062744,-6.91031122207642
565,2978678385,174.24417114257812,80.69158172607422,-108.32838439941406,-9.71620559692383,-0.20986223220825,-1.78138971328735,-5.06050252914429,4.36526823043823,-6.90693044662476
566,2978686718,174.55993652343750,80.65569305419922,-107.95171356201172,-9.56010246276855,-0.28468832373619,-1.83796358108521,-4.66271352767944,4.59505319595337,-6.47576665878296
567,2978695051,174.86151123046875,80.62963104248047,-107.61030578613281,-9.54255867004395,-0.21354970335960,-1.89931499958038,-4.40539264678955,4.17918014526367,-6.39677095413208
568,2978703384,175.15858459472656,80.59188842773438,-107.26178741455078,-9.53305435180664,-0.06859152019024,-1.93598639965057,-3.84759068489075,4.72025489807129,-6.02029228210449
569,2978711717,175.42765808105469,80.56259918212891,-106.95670318603516,-9.61955356597900,0.04641687124968,-1.88901197910309,-3.97576427459717,4.46109008789062,-5.73159456253052
570,2978720050,175.71102905273438,80.52466583251953,-106.63229370117188,-9.59907722473145,0.04994397610426,-1.79654979705811,-3.33456420898438,4.62842845916748,-5.73787069320679
571,2978728383,175.97511291503906,80.49494171142578,-106.33372497558594,-9.64776134490967,0.00015658605844,-1.68304181098938,-3.79538965225220,4.44605588912964,-5.67949676513672
572,2978736716,176.21636962890625,80.47046661376953,-106.04696655273438,-9.78511714935303,-0.11184676736593,-1.74024844169617,-3.65333247184753,2.89362716674805,-5.13862514495850
573,2978745049,176.38479614257812,80.45138549804688,-105.84246826171875,-9.72593212127686,-0.16690985858440,-1.70478963851929,-4.14028549194336,2.99739074707031,-3.95855236053467
574,2978753382,176.53410339355469,80.42180633544922,-105.64440917968750,-9.75470733642578,-0.36950907111168,-1.87969529628754,-4.37352800369263,3.37591791152954,-3.40484881401062
575,2978761715,176.64434814453125,80.40999603271484,-105.51333618164062,-9.80981063842773,-0.76805657148361,-1.84699344635010,-2.43184113502502,2.02120637893677,-2.57656145095825
576,2978770048,176.75068664550781,80.39393615722656,-105.39157867431641,-9.83083152770996,-0.91206765174866,-1.76834535598755,0.01563748903573,1.67438948154449,-1.89068901538849
577,2978778381,176.82153320312500,80.39035034179688,-105.33532714843750,-9.78004360198975,-0.66637104749680,-1.66950321197510,1.69454813003540,0.94036251306534,-1.14695429801941
578,2978786714,176.87738037109375,80.38156127929688,-105.28888702392578,-9.68177700042725,-0.39849093556404,-1.65793347358704,1.81091368198395,0.70366144180298,-0.54824709892273
579,2978795047,176.90368652343750,80.38007354736328,-105.26765441894531,-9.60710525512695,-0.15638975799084,-1.60455429553986,0.49674969911575,0.64567089080811,-0.45921203494072
580,2978803380,176.92791748046875,80.36289978027344,-105.21775054931641,-9.60584640502930,0.04888725280762,-1.63846516609192,-1.28219723701477,1.72574627399445,-0.33390712738037
581,2978811713,176.93345642089844,80.33965301513672,-105.19391632080078,-9.60300922393799,0.08971393108368,-1.57544434070587,-2.29716110229492,3.25742602348328,-0.37284076213837
582,2978820046,176.96675109863281,80.30430603027344,-105.11973571777344,-9.61179828643799,0.09960951656103,-1.64555752277374,-3.31322693824768,3.94317078590393,-0.74560481309891
583,2978828379,176.99536132812500,80.26940155029297,-105.05904388427734,-9.62294483184814,0.05661122500896,-1.73384892940521,-3.89175057411194,4.68913459777832,-1.05233538150787
584,2978836712,177.08525085449219,80.23415374755859,-104.91533660888672,-9.59167480468750,0.07755631953478,-1.70403444766998,-4.03175783157349,4.04063320159912,-2.05774545669556
585,2978845045,177.17071533203125,80.21331024169922,-104.80730438232422,-9.63871669769287,0.26365619897842,-1.69345772266388,-2.66224098205566,3.04779958724976,-2.11622262001038
586,2978853378,177.27178955078125,80.18585968017578,-104.68428039550781,-9.48684024810791,0.16686025261879,-1.75917541980743,-0.70359748601913,3.05860900878906,-1.78951299190521
587,2978861711,177.39176940917969,80.17536926269531,-104.56690979003906,-9.67864704132080,0.11042170226574,-1.68632709980011,0.38345792889595,1.81006848812103,-2.38199591636658
588,2978870044,177.51753234863281,80.16793060302734,-104.44567871093750,-9.60978412628174,0.18245325982571,-1.88647496700287,2.43533754348755,0.66816014051437,-1.90162646770477
589,2978878377,177.63107299804688,80.16045379638672,-104.35301971435547,-9.49965095520020,0.23833836615086,-1.83795630931854,2.54307079315186,1.42221748828888,-1.89875781536102
590,2978886710,177.76399230957031,80.14278411865234,-104.21694183349609,-9.58072090148926,0.24542796611786,-1.95692038536072,1.70996809005737,1.88647568225861,-2.14275884628296
591,2978895043,177.87677001953125,80.13157653808594,-104.11499786376953,-9.62833023071289,0.02858768403530,-1.87275826931000,1.35172724723816,1.86547195911407,-2.08026027679443
592,2978903376,178.01083374023438,80.11765289306641,-103.98028564453125,-9.57942581176758,-0.18745499849319,-1.80006241798401,1.88419604301453,1.42552173137665,-2.19027304649353
593,2978911709,178.14883422851562,80.10154724121094,-103.86654663085938,-9.53843879699707,-0.24775809049606,-1.82679820060730,2.98371291160583,2.44622349739075,-2.31614160537720
594,2978920042,178.31970214843750,80.07798004150391,-103.71335601806641,-9.54478836059570,-0.21352821588516,-1.73789346218109,4.09378194808960,2.59401774406433,-2.54469752311707
595,2978928375,178.49586486816406,80.05804443359375,-103.57758331298828,-9.57781982421875,0.02856292948127,-1.65495312213898,4.96064424514771,2.90190052986145,-2.78101396560669
596,2978936708,178.71162414550781,80.03466796875000,-103.38353729248047,-9.53617954254150,0.22428345680237,-1.59229278564453,4.76466989517212,2.57035017013550,-3.38515186309814
597,2978945041,178.95632934570312,80.01644897460938,-103.16348266601562,-9.47613239288330,0.53416198492050,-1.78100538253784,3.23270916938782,2.71102380752563,-4.56560993194580
598,2978953374,179.25790405273438,79.98387908935547,-102.84968566894531,-9.44626712799072,0.69943183660507,-1.81976544857025,0.60084587335587,3.69069147109985,-5.97262430191040
599,2978961707,179.57618713378906,79.94971466064453,-102.51035308837891,-9.39544486999512,0.73069649934769,-1.93301546573639,-2.02946710586548,4.59810161590576,-7.08968782424927
600,2978970040,179.92723083496094,79.90364837646484,-102.09733581542969,-9.40677356719971,0.61692565679550,-2.05198621749878,-4.01034450531006,5.29662752151489,-7.97983407974243
601,2978978373,-179.73521423339844,79.85890960693359,-101.72566986083984,-9.46676826477051,0.34014850854874,-1.94342064857483,-3.51803898811340,5.78334999084473,-7.88091325759888
602,2978986706,-179.38014221191406,79.80632781982422,-101.36164093017578,-9.54305934906006,-0.15326090157032,-1.61376965045929,1.59083628654480,5.93977499008179,-7.26404380798340
603,2978995039,-179.00097656250000,79.76597595214844,-101.02402496337891,-9.63067340850830,-0.26269420981407,-1.64561700820923,5.51470661163330,5.16855669021606,-7.28550863265991
604,2979003372,-178.57154846191406,79.72329711914062,-100.63368225097656,-9.65734767913818,0.10360374301672,-1.75678861141205,7.68715238571167,4.64635896682739,-7.91011142730713
605,2979011705,-178.09181213378906,79.67676544189453,-100.21538543701172,-9.55608654022217,0.55917131900787,-1.50327324867249,8.07118701934814,5.74789857864380,-9.16771888732910
606,2979020038,-177.56037902832031,79.61092376708984,-99.70618438720703,-9.49438285827637,0.69777584075928,-1.40555369853973,5.43084669113159,7.20624589920044,-10.82035255432129
607,2979028371,-177.03634643554688,79.53160858154297,-99.18283081054688,-9.37947368621826,0.74251902103424,-1.87113738059998,1.00852215290070,8.64840316772461,-11.73900413513184
608,2979036704,-176.50503540039062,79.44792175292969,-98.62937164306641,-9.36285686492920,0.44331344962120,-1.85505533218384,-1.65022289752960,9.76193237304688,-12.69244384765625
609,2979045037,-175.93640136718750,79.37290191650391,-98.03447723388672,-9.49137878417969,0.25345003604889,-1.69051039218903,-2.03758716583252,8.54648494720459,-13.71511745452881
610,2979053370,-175.37324523925781,79.29170989990234,-97.44543457031250,-9.48580169677734,0.13312895596027,-1.85115694999695,-2.16942358016968,8.40027904510498,-13.80497169494629
611,2979061703,-174.81523132324219,79.21551513671875,-96.85726165771484,-9.43259620666504,0.09534757584333,-2.27316594123840,-2.48816728591919,7.67652320861816,-13.90435695648193
612,2979070036,-174.23374938964844,79.14587402343750,-96.24927520751953,-9.54321289062500,0.29278311133385,-2.40374422073364,-1.98361802101135,7.43700456619263,-14.46085262298584
613,2979078369,-173.67054748535156,79.06880950927734,-95.65641021728516,-9.59901142120361,0.12026196718216,-2.38862109184265,-2.20963788032532,7.46205520629883,-14.34940433502197
614,2979086702,-173.14187622070312,78.99543762207031,-95.08571624755859,-9.43011569976807,-0.11444724351168,-2.88673210144043,-3.89251971244812,7.66901922225952,-13.98558139801025
615,2979095035,-172.66233825683594,78.91741943359375,-94.56783294677734,-9.39936161041260,-0.48707905411720,-2.63651633262634,-3.55159401893616,8.24539184570312,-13.00204563140869
616,2979103368,-172.22003173828125,78.83277893066406,-94.10601043701172,-9.56491184234619,-0.68297690153122,-2.44551897048950,-1.34546458721161,8.27894401550293,-11.97742271423340
617,2979111701,-171.78692626953125,78.75295257568359,-93.66236114501953,-9.65332508087158,-0.45357710123062,-2.25196528434753,-0.35798466205597,7.63441514968872,-11.60796451568604
618,2979120034,-171.35794067382812,78.68015289306641,-93.22203826904297,-9.65246582031250,-0.41521427035332,-1.76187741756439,-0.44353619217873,7.54120349884033,-11.53821659088135
619,2979128367,-170.94567871093750,78.60457611083984,-92.77593231201172,-9.68327426910400,-0.46291238069534,-1.87171256542206,-3.12959933280945,6.93056106567383,-11.83168029785156
620,2979136700,-170.52711486816406,78.53237915039062,-92.31031799316406,-9.65458869934082,-0.51921093463898,-1.86752426624298,-4.63907194137573,7.18570423126221,-12.35474681854248
621,2979145033,-170.13887023925781,78.45380401611328,-91.86465454101562,-9.63959217071533,-0.73865616321564,-1.86849200725555,-5.91630125045776,7.92088508605957,-12.13295555114746
622,2979153366,-169.78193664550781,78.37076568603516,-91.44908905029297,-9.72334003448486,-1.07324278354645,-1.97482764720917,-6.10384750366211,7.67303991317749,-11.60437679290771
623,2979161699,-169.44110107421875,78.30026245117188,-91.05934143066406,-9.72950744628906,-1.25568878650665,-2.08080673217773,-5.02072381973267,6.22624540328979,-10.79463386535645
624,2979170032,-169.10708618164062,78.24288940429688,-90.68032073974609,-9.73870372772217,-1.33424401283264,-2.19606423377991,-4.55446815490723,5.45433473587036,-10.39518070220947
625,2979178365,-168.78671264648438,78.18068695068359,-90.31922912597656,-9.63699436187744,-1.12141931056976,-2.40501523017883,-4.08011722564697,5.25380039215088,-10.02441310882568
626,2979186698,-168.50271606445312,78.12751770019531,-89.99916839599609,-9.61471557617188,-0.98572045564651,-2.26822710037231,-3.60963463783264,5.11366415023804,-9.01679897308350
627,2979195031,-168.26644897460938,78.09459686279297,-89.76030731201172,-9.69807338714600,-1.05740940570831,-2.17244863510132,0.19778034090996,3.09106183052063,-6.60878038406372
628,2979203364,-168.06480407714844,78.06212615966797,-89.56170654296875,-9.60816287994385,-0.93743532896042,-2.45886039733887,0.76206195354462,2.40992808341980,-5.47993516921997
629,2979211697,-167.87849426269531,78.03466796875000,-89.37151336669922,-9.70167064666748,-0.87548696994781,-2.39405441284180,-0.09999797493219,1.82615423202515,-5.13457870483398
630,2979220030,-167.74851989746094,78.01733398437500,-89.22080230712891,-9.67199325561523,-0.86518478393555,-2.41335821151733,-2.19204092025757,1.65533292293549,-4.13590478897095
631,2979228363,-167.67425537109375,77.99501800537109,-89.12203979492188,-9.54817676544189,-1.08569502830505,-2.38428664207458,-2.79126024246216,2.49827170372009,-3.00598454475403
632,2979236696,-167.61506652832031,77.96987152099609,-89.05318450927734,-9.71395683288574,-1.32258927822113,-1.96344292163849,-1.10755944252014,2.15209531784058,-2.12347126007080
633,2979245029,-167.53056335449219,77.95587158203125,-88.97988891601562,-9.90901947021484,-1.26521337032318,-1.75054323673248,1.40285325050354,0.82917118072510,-1.90178000926971
634,2979253362,-167.39595031738281,77.95654296875000,-88.86274719238281,-9.81139850616455,-0.84260672330856,-1.64435029029846,2.30334734916687,-0.31669440865517,-2.87258505821228
635,2979261695,-167.21092224121094,77.94972229003906,-88.68921661376953,-9.61140918731689,-0.55402016639709,-1.76409244537354,1.69856965541840,-0.52642375230789,-4.13429117202759
636,2979270028,-166.98843383789062,77.94697570800781,-88.46050262451172,-9.33195686340332,-0.44119277596474,-2.24169778823853,-0.24712614715099,-0.56676614284515,-5.68638563156128
637,2979278361,-166.76831054687500,77.94010162353516,-88.23466491699219,-9.28265762329102,-0.56197965145111,-2.39457178115845,-0.19781875610352,-0.08386101573706,-5.72880315780640
638,2979286694,-166.54028320312500,77.93539428710938,-88.01214599609375,-9.41561317443848,-0.58906382322311,-2.64857053756714,1.10503661632538,-1.10686790943146,-5.27415037155151
639,2979295027,-166.35609436035156,77.93096923828125,-87.84228515625000,-9.44855403900146,-0.55076360702515,-3.10271024703979,2.01864504814148,-0.87549459934235,-3.97837781906128
640,2979303360,-166.23582458496094,77.93585205078125,-87.74723815917969,-9.54955577850342,-0.60629552602768,-2.56738543510437,3.17679262161255,-0.74132716655731,-2.20169687271118
641,2979311693,-166.14439392089844,77.94418334960938,-87.70806121826172,-9.76756858825684,-0.75787854194641,-2.41851830482483,6.22276067733765,-1.65621650218964,-0.42360821366310
642,2979320026,-166.06983947753906,77.96971130371094,-87.69455718994141,-9.86692142486572,-0.73556441068649,-2.42284440994263,7.26405715942383,-2.65330219268799,0.38461062312126
643,2979328359,-165.99835205078125,77.99738311767578,-87.67938995361328,-9.75414466857910,-0.57546067237854,-2.08115410804749,6.69401168823242,-2.91331219673157,0.40830373764038
644,2979336692,-165.94984436035156,78.01703643798828,-87.67332458496094,-9.59628963470459,-0.80147576332092,-1.98197185993195,4.95892858505249,-2.79561448097229,0.73637080192566
645,2979345025,-165.93875122070312,78.03952789306641,-87.69268798828125,-9.64257526397705,-0.86609494686127,-2.05653953552246,3.45491218566895,-2.95306515693665,1.43730449676514
646,2979353358,-165.95460510253906,78.06839752197266,-87.72879028320312,-9.66388702392578,-0.79786306619644,-1.92853665351868,2.23080754280090,-2.74835586547852,1.68699181079865
647,2979361691,-165.93867492675781,78.09608459472656,-87.74001312255859,-9.68169307708740,-0.74457204341888,-1.65942382812500,3.08368515968323,-3.59500956535339,1.41443085670471
648,2979370024,-165.88021850585938,78.14696502685547,-87.72801971435547,-9.61800479888916,-0.96930199861526,-1.65006697177887,5.50092649459839,-5.59932374954224,1.17585992813110
649,2979378357,-165.73022460937500,78.19486999511719,-87.64108276367188,-9.57517719268799,-0.67084336280823,-1.99880564212799,7.62861108779907,-6.50372362136841,-0.30950966477394
650,2979386690,-165.57757568359375,78.24027252197266,-87.54632568359375,-9.55330848693848,-0.30290105938911,-2.13330221176147,7.07776451110840,-5.47281503677368,-0.91952544450760
651,2979395023,-165.46577453613281,78.27236938476562,-87.49355316162109,-9.47433185577393,-0.13358055055141,-2.39224171638489,7.04689836502075,-4.45536518096924,0.06146135181189
652,2979403356,-165.40933227539062,78.30929565429688,-87.50555419921875,-9.45174312591553,-0.13255974650383,-2.55809974670410,8.08104896545410,-3.82666420936584,1.37793076038361
653,2979411689,-165.37205505371094,78.34622192382812,-87.53813171386719,-9.41679668426514,-0.72564983367920,-2.58013415336609,8.19930934906006,-3.70079636573792,1.86086153984070
654,2979420022,-165.30191040039062,78.37949371337891,-87.54222106933594,-9.55506992340088,-0.85672622919083,-2.41237688064575,8.68495559692383,-4.26420688629150,1.42165410518646
655,2979428355,-165.23384094238281,78.42807006835938,-87.54631042480469,-9.70717430114746,-0.54944670200348,-2.13495945930481,8.43160533905029,-6.07544136047363,1.90558421611786
656,2979436688,-165.19236755371094,78.48647308349609,-87.54952239990234,-9.63260078430176,-0.35733184218407,-2.31335926055908,5.24503946304321,-6.36997842788696,1.84295690059662
657,2979445021,-165.15519714355469,78.53276062011719,-87.54959106445312,-9.40845870971680,-0.41499483585358,-2.17989492416382,4.26972675323486,-5.83387279510498,1.74869680404663
658,2979453354,-165.09408569335938,78.58934783935547,-87.54490661621094,-9.47870445251465,-0.68696135282516,-1.61476469039917,6.66888475418091,-6.21911144256592,1.61849963665009
659,2979461687,-164.97465515136719,78.64554595947266,-87.50048828125000,-9.57019233703613,-0.59092706441879,-1.73274815082550,9.00121402740479,-6.39574670791626,0.70563375949860
660,2979470020,-164.79399108886719,78.69094848632812,-87.39031219482422,-9.56472301483154,-0.23000548779964,-1.93457388877869,8.51413440704346,-6.40063953399658,-0.76012814044952
661,2979478353,-164.62870788574219,78.72766113281250,-87.27326965332031,-9.59862709045410,0.07762291282415,-2.14981484413147,5.97089672088623,-5.41469669342041,-1.15235900878906
662,2979486686,-164.52865600585938,78.76599884033203,-87.21957397460938,-9.45047092437744,-0.31604036688805,-2.01868796348572,5.58107376098633,-4.38684797286987,-0.00466179102659
663,2979495019,-164.39135742187500,78.80509948730469,-87.14372253417969,-9.50912094116211,-0.77397406101227,-2.21882009506226,7.37040758132935,-5.43324136734009,-0.15719458460808
664,2979503352,-164.17845153808594,78.85802459716797,-87.00558471679688,-9.70163345336914,-0.52465087175369,-2.21107172966003,9.18181991577148,-6.61228942871094,-1.38552534580231
665,2979511685,-163.93576049804688,78.91432952880859,-86.82170104980469,-9.60041904449463,-0.08931556344032,-2.28843569755554,7.36805057525635,-7.28023195266724,-2.25213170051575
666,2979520018,-163.69224548339844,78.96891784667969,-86.60702514648438,-9.49509429931641,0.06090266257524,-2.42858529090881,3.79366040229797,-8.13746452331543,-2.60873341560364
667,2979528351,-163.45185852050781,79.01739501953125,-86.37944793701172,-9.42674446105957,0.02566477470100,-2.54614257812500,1.91721260547638,-7.53130197525024,-3.08359551429749
668,2979536684,-163.23538208007812,79.06726837158203,-86.16933441162109,-9.33831119537354,-0.12642540037632,-2.50325179100037,1.12504124641418,-6.73195934295654,-2.88992619514465
669,2979545017,-163.03123474121094,79.10726165771484,-85.96468353271484,-9.26774692535400,-0.29857829213142,-2.54725432395935,0.25443899631500,-6.46008872985840,-2.82012701034546
670,2979553350,-162.78196716308594,79.15465545654297,-85.72896575927734,-9.39305686950684,-0.28738829493523,-2.28411626815796,2.02338409423828,-6.63647031784058,-3.44012045860291
