sep=,
DeviceTag:,yxb
FirmwareVersion:,1.6.0
AppVersion:,2021.0
StartTime: ,2021-08-30_17:05:05_000 GMT+8
© Xsens Technologies B. V. 2005-2021

PacketCounter,SampleTimeFine,Euler_X,Euler_Y,Euler_Z,Acc_X,Acc_Y,Acc_Z,Gyr_X,Gyr_Y,Gyr_Z
0,677851206,134.85983276367188,63.75484466552734,125.67797088623047,0.00000000000000,0.00000000000000,0.00000000000000,0.00000000000000,0.00000000000000,0.00000000000000
1,677859539,134.82569885253906,63.76488494873047,125.68563079833984,-8.41951370239258,2.91324996948242,-2.54766297340393,-4.23596715927124,0.86051028966904,-0.84500074386597
2,677867872,133.79122924804688,64.06536865234375,124.92017364501953,-8.47628593444824,2.92203807830811,-2.35183286666870,-5.21202278137207,1.62332761287689,-0.28709712624550
3,677876205,133.76034545898438,64.06568145751953,124.92076110839844,-8.58409309387207,2.95782041549683,-2.32103586196899,-3.08437681198120,1.41984844207764,0.24692127108574
4,677884538,132.77445983886719,64.44737243652344,124.27174377441406,-8.62238121032715,3.02649378776550,-2.60614824295044,-1.54782962799072,1.25204920768738,0.53520935773849
5,677892871,132.74470520019531,64.44861602783203,124.26203155517578,-8.55307102203369,3.12286162376404,-2.83614134788513,-1.83552908897400,0.95343869924545,0.52839612960815
6,677901204,131.99349975585938,64.75605010986328,123.83619689941406,-8.56077098846436,3.20540452003479,-2.89770627021790,-1.85622513294220,0.67485827207565,0.38943883776665
7,677909537,131.96249389648438,64.75948333740234,123.82357025146484,-8.64512729644775,3.23496007919312,-2.87766599655151,-1.66196691989899,0.66830098628998,0.42634892463684
8,677917870,131.61203002929688,64.81220245361328,123.71810150146484,-8.73898792266846,3.12757372856140,-2.83882594108582,-2.97659206390381,0.75769472122192,0.86276429891586
9,677926203,131.53971862792969,64.80972290039062,123.69016265869141,-8.82262134552002,2.97046375274658,-2.88670206069946,-4.95557308197021,0.55644363164902,1.47374057769775
10,677934536,131.30632019042969,64.78699493408203,123.69190216064453,-8.85022068023682,2.97390246391296,-2.94576835632324,-6.14466333389282,-0.30633342266083,1.66144168376923
11,677942869,131.20309448242188,64.79085540771484,123.63057708740234,-8.81379032135010,3.07011914253235,-2.96738982200623,-5.03718042373657,-1.23825621604919,2.02334547042847
12,677951202,131.16157531738281,64.78163146972656,123.78019714355469,-8.75832939147949,3.10250711441040,-3.07482266426086,-3.33688163757324,-1.01315820217133,2.30945634841919
13,677959535,131.08354187011719,64.77655792236328,123.73624420166016,-8.72043991088867,3.11467552185059,-3.29675650596619,-3.89924240112305,0.13150349259377,2.24096393585205
14,677967868,131.13409423828125,64.73402404785156,123.97159576416016,-8.69806575775146,3.12306571006775,-3.28892445564270,-5.16704463958740,1.18453037738800,2.12103796005249
15,677976201,131.06666564941406,64.71902465820312,123.95932769775391,-8.68416595458984,3.11805582046509,-3.14880251884460,-6.07033109664917,2.13164258003235,2.07377982139587
16,677984534,131.21578979492188,64.63331604003906,124.28166961669922,-8.71731567382812,3.05957698822021,-3.07318329811096,-6.22852325439453,2.49769520759583,1.84148406982422
17,677992867,131.14535522460938,64.62353515625000,124.26312255859375,-8.79406929016113,3.41153693199158,-2.95873236656189,-5.74661827087402,1.47781348228455,1.81551146507263
18,678001200,131.29374694824219,64.55865478515625,124.54032135009766,-8.72598457336426,3.06404113769531,-2.79984211921692,-2.79314255714417,-0.60896563529968,1.05148994922638
19,678009533,131.22029113769531,64.55963134765625,124.51317596435547,-8.84892845153809,2.97970533370972,-2.98311400413513,-5.18062019348145,0.29505038261414,1.14070439338684
20,678017866,131.29882812500000,64.50372314453125,124.73886871337891,-8.65154838562012,3.29330730438232,-3.10770797729492,-4.43906259536743,-0.26360890269279,0.68584686517715
21,678026199,131.21498107910156,64.51696014404297,124.70687866210938,-8.75312137603760,3.16995453834534,-3.01896595954895,-5.90109729766846,-0.86713159084320,0.20209632813931
22,678034532,131.27238464355469,64.47265625000000,124.91010284423828,-8.73149394989014,3.18334388732910,-3.05037808418274,-7.19889402389526,-0.45643287897110,-0.21524924039841
23,678042865,131.18949890136719,64.48484802246094,124.89926147460938,-8.71782302856445,3.24895715713501,-2.93333029747009,-8.07874393463135,0.03954838588834,-0.42549094557762
24,678051198,131.23161315917969,64.44210815429688,125.09899902343750,-8.73118782043457,3.17819213867188,-2.76109743118286,-8.25524997711182,-0.01981261186302,-0.31809040904045
25,678059531,131.14212036132812,64.45427703857422,125.08698272705078,-8.77466773986816,3.11939740180969,-2.66286611557007,-8.74271583557129,-0.00644198013470,-0.38110142946243
26,678067864,131.15371704101562,64.41904449462891,125.25049591064453,-8.88866615295410,2.80565571784973,-2.57026076316833,-9.08438301086426,0.27373933792114,-0.56163054704666
27,678076197,131.05996704101562,64.41622924804688,125.25435638427734,-8.51251220703125,2.87831878662109,-2.76363873481750,-10.97302436828613,1.79553258419037,0.42978128790855
28,678084530,131.04748535156250,64.38318634033203,125.38924407958984,-8.53709983825684,3.04550886154175,-2.84363389015198,-11.62365150451660,2.59687376022339,0.59353315830231
29,678092863,130.94282531738281,64.37776184082031,125.39304351806641,-8.47799015045166,3.17567586898804,-2.97125792503357,-12.27433013916016,1.99888372421265,0.66824984550476
30,678101196,130.89804077148438,64.35663604736328,125.55352020263672,-8.43208789825439,3.26279020309448,-3.04646706581116,-13.40550613403320,1.57099807262421,0.57201713323593
31,678109529,130.77140808105469,64.35777282714844,125.55248260498047,-8.54905033111572,3.19948172569275,-2.97807216644287,-14.39029502868652,1.29195642471313,0.23885275423527
32,678117862,130.71919250488281,64.33709716796875,125.66518402099609,-8.58689880371094,3.09123015403748,-2.95865941047668,-14.35881614685059,0.99980056285858,-0.21425028145313
33,678126195,130.59552001953125,64.35095214843750,125.65509796142578,-8.74432563781738,3.38999128341675,-2.93699407577515,-13.05594825744629,-0.05467359349132,-0.61288470029831
34,678134528,130.49615478515625,64.37023162841797,125.68737030029297,-9.04380130767822,3.59109163284302,-2.74165701866150,-12.93945789337158,-4.75839614868164,-1.72841060161591
35,678142861,130.30065917968750,64.42733001708984,125.61384582519531,-8.92378330230713,3.64713215827942,-2.75066494941711,-14.80955123901367,-5.92253732681274,-2.44161343574524
36,678151194,130.17375183105469,64.44556427001953,125.61712646484375,-8.46525192260742,3.65447306632996,-3.07581353187561,-13.46751785278320,-4.82550430297852,-1.65530717372894
37,678159527,130.02651977539062,64.48233032226562,125.58264923095703,-8.53129196166992,3.28063797950745,-3.06924724578857,-13.23773193359375,-2.78461337089539,-1.92000484466553
38,678167860,129.92277526855469,64.48429870605469,125.64640045166016,-8.82396125793457,3.05047345161438,-2.77160000801086,-13.17838287353516,-2.31454086303711,-2.23552083969116
39,678176193,129.77275085449219,64.51906585693359,125.61759185791016,-8.92186355590820,2.91278767585754,-2.83108639717102,-14.18766117095947,-2.39425230026245,-1.94400525093079
40,678184526,129.65951538085938,64.51100158691406,125.66017913818359,-8.79914283752441,2.99985599517822,-2.96621322631836,-14.44024467468262,-1.54629302024841,-0.94236057996750
41,678192859,129.52339172363281,64.52290344238281,125.64035797119141,-8.60910320281982,3.04930090904236,-3.01338553428650,-13.49226093292236,-0.27874693274498,-0.14391358196735
42,678201192,129.45249938964844,64.50513458251953,125.69807434082031,-8.65890979766846,3.09394192695618,-2.99563717842102,-11.28925895690918,-0.00718479370698,0.35375824570656
43,678209525,129.32447814941406,64.51779174804688,125.64881896972656,-8.74731349945068,3.16281342506409,-2.92290425300598,-9.33051109313965,-1.51284086704254,0.74455469846725
44,678217858,129.23699951171875,64.52042388916016,125.63826751708984,-8.79556465148926,3.25213623046875,-2.74969291687012,-6.08096075057983,-4.49897384643555,1.02789926528931
45,678226191,129.07496643066406,64.55871582031250,125.51470947265625,-8.85276412963867,3.28262329101562,-2.77514314651489,-5.36399173736572,-6.42411422729492,0.76640349626541
46,678234524,128.96333312988281,64.57368469238281,125.46780395507812,-8.92150878906250,3.36520051956177,-2.74203133583069,-6.33026409149170,-6.20918607711792,0.76814538240433
47,678242857,128.80073547363281,64.60655975341797,125.35427093505859,-8.92425632476807,3.44782304763794,-2.58384847640991,-6.51015281677246,-5.61127233505249,0.90367031097412
48,678251190,128.69090270996094,64.61684417724609,125.30920410156250,-8.92403316497803,3.46420836448669,-2.39093065261841,-6.57536697387695,-5.28891754150391,0.98366355895996
49,678259523,128.52188110351562,64.64872741699219,125.19441986083984,-8.87379550933838,3.52337312698364,-2.28973317146301,-7.14205598831177,-5.58424949645996,0.99690604209900
50,678267856,128.38175964355469,64.66730499267578,125.08949279785156,-8.81199741363525,3.58274555206299,-2.25191450119019,-6.53108024597168,-6.49924230575562,0.99198830127716
51,678276189,128.19041442871094,64.70497131347656,124.94870758056641,-8.77168655395508,3.49036383628845,-2.37874865531921,-6.99369764328003,-7.05391788482666,1.23214721679688
52,678284522,127.98834991455078,64.72599792480469,124.84861755371094,-8.85374736785889,3.45315456390381,-2.57391262054443,-9.84294795989990,-7.14876651763916,1.45926868915558
53,678292855,127.73501586914062,64.76260375976562,124.67662048339844,-8.92901229858398,3.37639403343201,-2.46469998359680,-11.04077434539795,-8.22938060760498,2.24183535575867
54,678301188,127.47483825683594,64.78805541992188,124.47348022460938,-8.94476222991943,3.24913525581360,-2.42329049110413,-8.13829612731934,-10.34857559204102,3.26030826568604
55,678309521,127.20475006103516,64.83037567138672,124.22761535644531,-8.95477676391602,3.07877516746521,-2.53898310661316,-5.02145338058472,-11.64903450012207,3.88186335563660
56,678317854,126.95333862304688,64.86138916015625,123.97927093505859,-8.92475318908691,2.95741462707520,-2.51151299476624,-2.31889557838440,-12.16552162170410,4.09351396560669
57,678326187,126.71903991699219,64.90386962890625,123.73747253417969,-8.90558910369873,2.93142056465149,-2.65638613700867,-1.15088593959808,-11.49583435058594,3.60932731628418
58,678334520,126.51205444335938,64.93975830078125,123.53077697753906,-8.86996555328369,2.97765946388245,-2.58332276344299,0.28101381659508,-11.36041450500488,3.26622533798218
59,678342853,126.29924011230469,64.98739624023438,123.28382110595703,-8.84182929992676,3.04082155227661,-2.55118751525879,2.00339198112488,-12.07346248626709,3.14312314987183
60,678351186,126.10336303710938,65.03525543212891,123.03782653808594,-8.79682731628418,3.10311269760132,-2.45989227294922,3.87333512306213,-13.16742324829102,3.14545464515686
61,678359519,125.88845062255859,65.09186553955078,122.75540924072266,-8.76359272003174,3.20238280296326,-2.49149775505066,5.63111114501953,-14.13850975036621,3.20405960083008
62,678367852,125.70406341552734,65.14597320556641,122.50621795654297,-8.73317337036133,3.31402468681335,-2.54136919975281,6.58488321304321,-14.05085659027100,3.04087138175964
63,678376185,125.52535247802734,65.19512939453125,122.25566101074219,-8.67504978179932,3.32783651351929,-2.64424061775208,6.53209209442139,-12.28513908386230,2.85929203033447
64,678384518,125.38215637207031,65.23426818847656,122.06486511230469,-8.62341785430908,3.34330606460571,-2.64641690254211,5.90047073364258,-10.89436340332031,2.89113020896912
65,678392851,125.20945739746094,65.27736663818359,121.82312011718750,-8.61933135986328,3.36359667778015,-2.43354511260986,6.31121969223022,-11.48594951629639,3.09491705894470
66,678401184,125.05605316162109,65.31584167480469,121.60890960693359,-8.62218856811523,3.35507297515869,-2.28504276275635,7.79602766036987,-12.23637199401855,3.60156726837158
67,678409517,124.88607788085938,65.35411071777344,121.35348510742188,-8.60724735260010,3.44063901901245,-2.38122391700745,8.14740276336670,-11.70410537719727,3.86931204795837
68,678417850,124.74000549316406,65.38184356689453,121.16761016845703,-8.58082485198975,3.50510239601135,-2.46941423416138,6.48352766036987,-10.57421207427979,3.86311411857605
69,678426183,124.56315612792969,65.40964508056641,120.94911193847656,-8.55977153778076,3.50268840789795,-2.54215931892395,3.30935978889465,-9.46462821960449,3.76503777503967
70,678434516,124.41316986083984,65.42105102539062,120.80078887939453,-8.55233383178711,3.46407794952393,-2.63675260543823,0.09090493619442,-7.28270483016968,3.64908146858215
71,678442849,124.26556396484375,65.42851257324219,120.65892791748047,-8.59017848968506,3.35780787467957,-2.55754852294922,-1.53643155097961,-4.94171619415283,3.55807352066040
72,678451182,124.15445709228516,65.41670989990234,120.59642791748047,-8.65613651275635,3.33083391189575,-2.58503317832947,-3.09718370437622,-2.94411301612854,3.69587826728821
73,678459515,124.02264404296875,65.40998840332031,120.49681854248047,-8.71812725067139,3.23087978363037,-2.56417083740234,-4.25110530853271,-2.25742101669312,3.75832581520081
74,678467848,123.90235137939453,65.40175628662109,120.41893768310547,-8.71524047851562,3.18768715858459,-2.50772476196289,-3.16506171226501,-3.77493667602539,3.57193136215210
75,678476181,123.74958801269531,65.41453552246094,120.27227020263672,-8.67870426177979,3.18116974830627,-2.57070183753967,-1.63235676288605,-5.52976751327515,3.10808253288269
76,678484514,123.62867736816406,65.42473602294922,120.16973114013672,-8.65039157867432,3.19462704658508,-2.64069414138794,-1.22783112525940,-5.91154766082764,2.33537793159485
77,678492847,123.48323822021484,65.45517730712891,120.02441406250000,-8.64899826049805,3.31012701988220,-2.51555991172791,-0.89443624019623,-6.65210628509521,1.26749479770660
78,678501180,123.38174438476562,65.48263549804688,119.92682647705078,-8.68486404418945,3.31829214096069,-2.44632077217102,-0.87417548894882,-6.49621868133545,0.20022647082806
79,678509513,123.25454711914062,65.52119445800781,119.81087493896484,-8.69152832031250,3.23172760009766,-2.36966347694397,-1.90292000770569,-5.96121406555176,-0.39324259757996
80,678517846,123.17420959472656,65.54344940185547,119.77423858642578,-8.71855163574219,3.18889641761780,-2.32628417015076,-3.00348687171936,-4.42197704315186,-0.46534666419029
81,678526179,123.07221221923828,65.56867218017578,119.70664978027344,-8.82231521606445,3.21502614021301,-2.33291149139404,-4.15733146667480,-3.06286072731018,-0.39718714356422
82,678534512,123.01954650878906,65.57767486572266,119.70124053955078,-8.85321903228760,3.26296162605286,-2.30933976173401,-4.48598718643188,-1.69895374774933,-0.25052002072334
83,678542845,122.93999481201172,65.59178924560547,119.66834259033203,-8.83747673034668,3.23150634765625,-2.35037755966187,-5.24883031845093,-0.89126008749008,-0.22718545794487
84,678551178,122.89730072021484,65.59756469726562,119.69232177734375,-8.85503101348877,3.22121810913086,-2.32676410675049,-5.66644525527954,-0.52597546577454,-0.43094673752785
85,678559511,122.81562805175781,65.61688232421875,119.65612030029297,-8.85895538330078,3.16764760017395,-2.27786612510681,-5.14055919647217,-1.36696767807007,-0.67041420936584
86,678567844,122.75408935546875,65.63791656494141,119.63968658447266,-8.84583759307861,3.15968346595764,-2.28567576408386,-4.38537454605103,-2.85013413429260,-1.01994597911835
87,678576177,122.64649963378906,65.67482757568359,119.56120300292969,-8.88376808166504,3.21639204025269,-2.16261959075928,-3.62435030937195,-4.26342487335205,-1.32444798946381
88,678584510,122.57032775878906,65.71273803710938,119.51251983642578,-8.83214759826660,3.18501138687134,-2.04379463195801,-2.39958024024963,-5.28855895996094,-1.70074713230133
89,678592843,122.46123504638672,65.76183319091797,119.41391754150391,-8.79152870178223,3.19949746131897,-1.95776832103729,-1.59770083427429,-5.87041139602661,-2.04733324050903
90,678601176,122.39069366455078,65.80637359619141,119.37016296386719,-8.85359191894531,3.22054171562195,-1.97962212562561,-2.02064323425293,-5.43076944351196,-2.39658331871033
91,678609509,122.30114746093750,65.85327911376953,119.29418945312500,-8.89583492279053,3.19744920730591,-1.93582105636597,-1.71908664703369,-4.77148389816284,-2.45085978507996
92,678617842,122.24810791015625,65.89612579345703,119.27592468261719,-9.01356220245361,3.24835205078125,-1.94613420963287,-0.88196212053299,-4.72409725189209,-2.43421053886414
93,678626175,122.16167449951172,65.94541931152344,119.18817138671875,-9.07623767852783,3.24325418472290,-1.94416737556458,-0.04739914089441,-5.39616346359253,-2.40908265113831
94,678634508,122.09465789794922,65.99349975585938,119.12606811523438,-8.99682140350342,3.25291991233826,-1.95144462585449,0.29438439011574,-5.91526126861572,-2.25001835823059
95,678642841,122.00992584228516,66.04319763183594,119.04035186767578,-8.87597560882568,3.27293276786804,-2.09746360778809,-0.05528832972050,-5.31681108474731,-2.52375793457031
96,678651174,121.95687103271484,66.09218597412109,119.01010894775391,-8.79057216644287,3.32157397270203,-2.14106273651123,-0.80650264024734,-4.70808887481689,-2.97034215927124
97,678659507,121.89068603515625,66.14276885986328,118.95116424560547,-8.71997642517090,3.27730393409729,-2.13453745841980,-0.75729769468307,-4.25415372848511,-3.33004283905029
98,678667840,121.84938812255859,66.19648742675781,118.92827606201172,-8.74551391601562,3.26704144477844,-2.14369225502014,-0.12390884757042,-4.66912889480591,-3.65434432029724
99,678676173,121.77779388427734,66.26091766357422,118.84735870361328,-8.79253864288330,3.23091244697571,-2.21070504188538,1.01237702369690,-6.01792383193970,-4.19728946685791
100,678684506,121.72334289550781,66.32566833496094,118.80514526367188,-8.81527137756348,3.22274160385132,-2.38686275482178,1.21916103363037,-6.42239904403687,-4.14987850189209
101,678692839,121.64733886718750,66.39104461669922,118.71471405029297,-8.79786300659180,3.24066424369812,-2.34173846244812,1.54013299942017,-6.44048261642456,-4.07756900787354
102,678701172,121.57892608642578,66.45817565917969,118.63902282714844,-8.83992385864258,3.31498217582703,-2.33351421356201,1.60834348201752,-7.39789056777954,-3.93896961212158
103,678709505,121.47354888916016,66.52418518066406,118.52424621582031,-8.85146713256836,3.24193263053894,-2.37866497039795,0.71061569452286,-7.44448280334473,-3.56612896919250
104,678717838,121.38149261474609,66.58729553222656,118.45755767822266,-8.77037620544434,3.16674971580505,-2.26230645179749,0.01580398157239,-7.64721918106079,-3.29730725288391
105,678726171,121.26514434814453,66.64719390869141,118.33685302734375,-8.78781700134277,3.17523765563965,-2.20911312103271,0.06265242397785,-7.26974248886108,-2.83701992034912
106,678734504,121.19385528564453,66.69955444335938,118.26869964599609,-8.79641532897949,3.03072953224182,-2.16007328033447,0.76776105165482,-6.40587663650513,-2.61256217956543
107,678742837,121.10797119140625,66.74897003173828,118.16404724121094,-8.77566528320312,2.85445928573608,-2.15276288986206,1.96576452255249,-5.94049167633057,-2.19102883338928
108,678751170,121.06107330322266,66.79182434082031,118.09101104736328,-8.80735778808594,2.77872633934021,-2.11084723472595,3.63227796554565,-5.80296945571899,-1.63094794750214
109,678759503,120.99996948242188,66.83079528808594,117.98161315917969,-8.79129028320312,2.82180547714233,-2.16038107872009,5.46925497055054,-5.46688556671143,-1.02396762371063
110,678767836,120.98629760742188,66.86400604248047,117.93013000488281,-8.81060028076172,2.86946296691895,-2.21852707862854,6.54935503005981,-4.81543731689453,-0.73760032653809
111,678776169,120.97387695312500,66.89032745361328,117.85913848876953,-8.84975719451904,2.96631622314453,-2.23001050949097,7.08187627792358,-3.12515497207642,-0.66652089357376
112,678784502,121.01953125000000,66.91325378417969,117.86129760742188,-8.92419433593750,3.17046809196472,-2.24544787406921,7.41099357604980,-1.93732023239136,-0.92063981294632
113,678792835,120.97646331787109,66.94570159912109,117.78521728515625,-9.09198379516602,4.53166294097900,-2.18686318397522,3.96925854682922,-3.70270442962646,-1.17562937736511
114,678801168,120.90951538085938,66.99707794189453,117.71250915527344,-8.90187263488770,4.50365018844604,-1.91201508045197,1.81889259815216,-6.63855695724487,-2.07845425605774
115,678809501,120.79528808593750,67.04334259033203,117.63789367675781,-8.98940944671631,3.72140479087830,-1.82148718833923,-4.72309827804565,-4.48201751708984,-2.65008735656738
116,678817834,120.73195648193359,67.06394958496094,117.64759063720703,-8.88879299163818,3.16326761245728,-1.84553730487823,-7.14292716979980,-1.23146843910217,-1.51424968242645
117,678826167,120.66449737548828,67.08086395263672,117.64834594726562,-8.95893096923828,2.81088519096375,-2.01308369636536,-7.43559503555298,0.35378381609917,-1.44099283218384
118,678834500,120.63769531250000,67.09621429443359,117.69702911376953,-9.04824829101562,2.66506123542786,-2.04988765716553,-6.10836744308472,0.43759357929230,-1.79119062423706
119,678842833,120.58956146240234,67.11794281005859,117.68949127197266,-9.03880310058594,2.67627000808716,-2.04211091995239,-4.19549608230591,-0.27347037196159,-1.74067950248718
120,678851166,120.54722595214844,67.14318084716797,117.69313812255859,-9.02032184600830,3.04361319541931,-2.05557584762573,-3.25435185432434,-1.86132216453552,-1.60005700588226
121,678859499,120.46217346191406,67.17253112792969,117.62984466552734,-8.93828868865967,3.04728007316589,-2.03426647186279,-2.45764732360840,-2.96962451934814,-1.21179664134979
122,678867832,120.39299011230469,67.20447540283203,117.58544921875000,-8.87478733062744,3.07317256927490,-1.97600150108337,-1.94223797321320,-3.90994906425476,-1.19317531585693
123,678876165,120.30881500244141,67.23538970947266,117.51573181152344,-8.86740779876709,3.01954722404480,-1.93340325355530,-1.63450837135315,-3.31306052207947,-1.23933196067810
124,678884498,120.29116058349609,67.25737762451172,117.53049468994141,-8.91965198516846,2.97516465187073,-2.01614356040955,-1.40187966823578,-1.24417281150818,-1.33776724338531
125,678892831,120.25749969482422,67.27867126464844,117.51231384277344,-8.95519065856934,3.20725107192993,-2.12132167816162,-1.27255356311798,-0.66098809242249,-1.45251917839050
126,678901164,120.25929260253906,67.29588317871094,117.53685760498047,-8.87404632568359,3.23613238334656,-2.18468546867371,-0.81170231103897,-0.30057024955750,-1.15132141113281
127,678909497,120.22991943359375,67.31050109863281,117.52732849121094,-8.87911891937256,3.30215620994568,-2.25271224975586,-1.71570539474487,0.08391223847866,-0.96656590700150
128,678917830,120.21955108642578,67.32476043701172,117.55004119873047,-8.80521011352539,3.30425262451172,-2.19816112518311,-2.10009813308716,-0.23679079115391,-0.83690667152405
129,678926163,120.17456817626953,67.33785247802734,117.52478790283203,-8.73355293273926,3.29218101501465,-2.15425419807434,-1.84764432907104,-0.44920966029167,-0.44119235873222
130,678934496,120.16820526123047,67.34493255615234,117.55796813964844,-8.73497581481934,3.24860548973083,-2.17246866226196,-2.34420228004456,0.39015606045723,-0.29826498031616
131,678942829,120.12756347656250,67.35391998291016,117.53934478759766,-8.78067779541016,3.28660750389099,-2.11886811256409,-2.05855226516724,0.06083381548524,-0.16852886974812
132,678951162,120.10570526123047,67.36300659179688,117.54553222656250,-8.74603652954102,3.28373265266418,-2.14334678649902,-1.78550422191620,-0.66831374168396,-0.06174311041832
133,678959495,120.05422210693359,67.37196350097656,117.51538848876953,-8.71136379241943,3.17620468139648,-2.02295637130737,-2.08047771453857,-0.39987659454346,0.10048463940620
134,678967828,120.03053283691406,67.37911987304688,117.52123260498047,-8.76032066345215,3.17783212661743,-1.90334630012512,-2.18926143646240,-0.52438741922379,0.04303190857172
135,678976161,119.98082733154297,67.39122772216797,117.49541473388672,-8.80356979370117,3.20515227317810,-1.87442076206207,-2.34865880012512,-0.41409254074097,-0.32951435446739
136,678984494,119.96940612792969,67.39747619628906,117.52220153808594,-8.84427452087402,3.20749211311340,-1.87609469890594,-2.66642904281616,0.24507701396942,-0.29380807280540
137,678992827,119.92620086669922,67.40523529052734,117.50373077392578,-8.80477046966553,3.17929720878601,-1.89719212055206,-2.38003611564636,0.13890598714352,-0.04819318279624
138,679001160,119.90901184082031,67.41187286376953,117.51486968994141,-8.88241481781006,3.24012351036072,-1.99648010730743,-1.59910929203033,-0.36458018422127,0.00837585516274
139,679009493,119.86473846435547,67.42003631591797,117.49078369140625,-8.97820472717285,3.24095535278320,-2.08694815635681,-1.88657784461975,-0.11169087141752,0.03614168241620
140,679017826,119.86173248291016,67.42094421386719,117.52088928222656,-8.99838829040527,3.25947189331055,-2.06756067276001,-1.95343112945557,0.73671656847000,0.15499174594879
141,679026159,119.84809875488281,67.41792297363281,117.53295135498047,-8.95594215393066,3.21846723556519,-2.10517358779907,-2.21254491806030,1.99913978576660,0.37186747789383
142,679034492,119.87932586669922,67.40496063232422,117.59733581542969,-8.90696430206299,3.23731350898743,-2.05026340484619,-1.97776472568512,3.04174160957336,0.72767478227615
143,679042825,119.87643432617188,67.39482879638672,117.61489105224609,-8.85319137573242,3.22960186004639,-2.05225086212158,-1.53440797328949,2.64344024658203,0.98707026243210
144,679051158,119.90792083740234,67.38089752197266,117.67195892333984,-8.82854938507080,3.19513487815857,-1.97423565387726,-1.29721999168396,2.84561300277710,0.94949394464493
145,679059491,119.92432403564453,67.36677551269531,117.70473480224609,-8.83438873291016,3.23665833473206,-1.94642698764801,-0.90007132291794,3.49165558815002,1.05169486999512
146,679067824,119.98889923095703,67.34793853759766,117.79191589355469,-8.89003944396973,3.22555804252625,-1.89551758766174,-0.44549563527107,4.26479578018188,0.78423106670380
147,679076157,120.03336334228516,67.33232116699219,117.85411071777344,-8.88542747497559,3.21841049194336,-1.99817442893982,-0.79269659519196,4.75720453262329,0.51948231458664
148,679084490,120.11372375488281,67.31206512451172,117.95504760742188,-8.86450386047363,3.19981956481934,-1.99987280368805,-1.06794703006744,5.29469299316406,0.37506926059723
149,679092823,120.16675567626953,67.29518890380859,118.02569580078125,-8.85839271545410,3.17709255218506,-2.00906181335449,-0.69725787639618,5.17538213729858,0.44883826375008
150,679101156,120.24135589599609,67.27827453613281,118.11843872070312,-8.89810466766357,3.19540858268738,-2.00087714195251,-0.04096996784210,4.48974037170410,0.36536148190498
151,679109489,120.29330444335938,67.26412963867188,118.17839050292969,-8.90711498260498,3.19919490814209,-1.98647105693817,0.35675507783890,4.58279657363892,0.40280947089195
152,679117822,120.37503814697266,67.24956512451172,118.26986694335938,-8.92143344879150,3.23360872268677,-1.92945742607117,1.30151057243347,4.18526363372803,0.20855110883713
153,679126155,120.42809295654297,67.24233245849609,118.31652832031250,-8.92249870300293,3.22269058227539,-1.89425003528595,1.96012926101685,3.63207268714905,-0.00895217433572
154,679134488,120.52075195312500,67.23175048828125,118.40523529052734,-8.91458892822266,3.22685599327087,-1.87769043445587,3.12760066986084,3.78132724761963,-0.11878602206707
155,679142821,120.58621215820312,67.22521209716797,118.44890594482422,-8.90552139282227,3.23156404495239,-1.85779273509979,3.78304290771484,3.46885895729065,-0.01361396536231
156,679151154,120.67870330810547,67.21712493896484,118.52448272705078,-8.85383701324463,3.24854803085327,-1.86541044712067,4.59808874130249,3.14430093765259,-0.07490883022547
157,679159487,120.74794769287109,67.20913696289062,118.56356048583984,-8.79763793945312,3.28749799728394,-1.93761563301086,4.74483156204224,3.37411189079285,0.23690605163574
158,679167820,120.84537506103516,67.19309997558594,118.64887237548828,-8.74914455413818,3.27264523506165,-1.90123879909515,3.92602229118347,4.14632940292358,0.44494491815567
159,679176153,120.92131805419922,67.17898559570312,118.69933319091797,-8.72146797180176,3.35557270050049,-1.90635430812836,4.29007720947266,4.20091390609741,0.58800035715103
160,679184486,121.02018737792969,67.16183471679688,118.77939605712891,-8.71068382263184,3.43532586097717,-2.00190687179565,4.55331468582153,4.08841657638550,0.60408616065979
161,679192819,121.08865356445312,67.14715576171875,118.82434082031250,-8.69817638397217,3.42659807205200,-2.05751132965088,4.00542593002319,4.01761817932129,0.77116781473160
162,679201152,121.18408966064453,67.12656402587891,118.90539550781250,-8.69189167022705,3.39427351951599,-2.10235977172852,3.84088015556335,4.43892097473145,0.80825722217560
163,679209485,121.27384948730469,67.10906982421875,118.96850585937500,-8.73344898223877,3.34601330757141,-2.10338497161865,4.55554294586182,4.91706228256226,0.60849171876907
164,679217818,121.39606475830078,67.08860015869141,119.07415771484375,-8.74777317047119,3.28437304496765,-2.25519585609436,5.52081489562988,4.99101066589355,0.37278953194618
165,679226151,121.50421905517578,67.07277679443359,119.14737701416016,-8.81865215301514,3.30535960197449,-2.38963508605957,5.64463567733765,5.21790218353271,0.17374138534069
166,679234484,121.63918304443359,67.04821014404297,119.26011657714844,-8.84545516967773,3.31730127334595,-2.42577171325684,5.26959180831909,5.86609649658203,0.33465003967285
167,679242817,121.74961090087891,67.02705383300781,119.34606933593750,-8.85172748565674,3.28280615806580,-2.39969086647034,4.51696825027466,6.06473398208618,0.38861918449402
168,679251150,121.88527679443359,66.99674224853516,119.47215270996094,-8.86947822570801,3.28559899330139,-2.38766026496887,3.98695874214172,6.64996910095215,0.56110554933548
169,679259483,122.00104522705078,66.96723175048828,119.57637023925781,-8.91522884368896,3.26048016548157,-2.42067503929138,3.14276480674744,7.32997560501099,0.75997447967529
170,679267816,122.13991546630859,66.93310546875000,119.71853637695312,-8.89799594879150,3.28250575065613,-2.32200193405151,2.68508934974670,7.44237041473389,0.51105529069901
171,679276149,122.25617980957031,66.90528106689453,119.82953643798828,-8.88069438934326,3.32374238967896,-2.27229833602905,2.46014547348022,7.50187253952026,0.38590413331985
172,679284482,122.38532257080078,66.87461090087891,119.96593475341797,-8.87380504608154,3.38262271881104,-2.23972558975220,1.89263582229614,7.05175256729126,0.19740888476372
173,679292815,122.48155975341797,66.85372924804688,120.06217193603516,-8.85676956176758,3.36470460891724,-2.20149159431458,1.69269096851349,6.47174310684204,0.02346263639629
174,679301148,122.59519195556641,66.83256530761719,120.18440246582031,-8.87914180755615,3.35497522354126,-2.08454179763794,1.87357902526855,5.77639436721802,-0.40507635474205
175,679309481,122.68576049804688,66.82310485839844,120.26803588867188,-8.91231346130371,3.36129546165466,-2.07927656173706,2.40679025650024,5.23703527450562,-0.82899188995361
176,679317814,122.79299163818359,66.80929565429688,120.37699127197266,-8.95195102691650,3.40894460678101,-2.17085170745850,2.36071014404297,4.85471725463867,-0.92550641298294
177,679326147,122.87159729003906,66.80232238769531,120.45836639404297,-8.91991329193115,3.38771510124207,-2.21726059913635,1.22031331062317,4.98283958435059,-1.03700506687164
178,679334480,122.97176361083984,66.78553009033203,120.57444000244141,-8.90081596374512,3.42353510856628,-2.19256830215454,0.78256613016129,5.35199213027954,-0.84407871961594
179,679342813,123.04824829101562,66.77668762207031,120.65528106689453,-8.85804843902588,3.42444348335266,-2.25315189361572,1.02677226066589,5.07996845245361,-0.85020047426224
180,679351146,123.13961029052734,66.76155090332031,120.77258300781250,-8.82382392883301,3.38183903694153,-2.32268643379211,-0.03986855596304,5.17261552810669,-1.01638567447662
181,679359479,123.21101379394531,66.75157165527344,120.87231445312500,-8.81988048553467,3.37651753425598,-2.39275479316711,-1.66447734832764,5.89744758605957,-1.24115073680878
182,679367812,123.28521728515625,66.73845672607422,120.99079132080078,-8.83856678009033,3.32007169723511,-2.32380008697510,-2.40933871269226,5.14620733261108,-1.35036969184875
183,679376145,123.33384704589844,66.73683929443359,121.06756591796875,-8.88395309448242,3.34413313865662,-2.26384425163269,-1.86188590526581,4.43620634078979,-1.49150407314301
184,679384478,123.40312957763672,66.72865295410156,121.16857910156250,-8.87605381011963,3.33805131912231,-2.25969743728638,-1.41706931591034,4.22355699539185,-1.51709270477295
185,679392811,123.45114898681641,66.72743988037109,121.24229431152344,-8.89894390106201,3.32015109062195,-2.24339890480042,-1.59923768043518,4.28190612792969,-1.46133065223694
186,679401144,123.52046203613281,66.71583557128906,121.34819030761719,-8.92243576049805,3.30189394950867,-2.27686595916748,-1.74249815940857,4.57042503356934,-1.28810155391693
187,679409477,123.56124877929688,66.71311187744141,121.41159820556641,-8.92637348175049,3.25226688385010,-2.28685998916626,-1.32578003406525,3.96938705444336,-1.04732763767242
188,679417810,123.61291503906250,66.70487213134766,121.49011993408203,-8.89309978485107,3.18012309074402,-2.31404113769531,-0.88711059093475,3.28564023971558,-0.94484508037567
189,679426143,123.63541412353516,66.70869445800781,121.52922821044922,-8.87640953063965,3.19225788116455,-2.40247297286987,-0.84331035614014,2.57077288627625,-1.06722998619080
190,679434476,123.67047882080078,66.70346069335938,121.59639739990234,-8.82632637023926,3.18177485466003,-2.44586586952209,-1.63199818134308,2.64080190658569,-0.94497311115265
191,679442809,123.68665313720703,66.70452117919922,121.64154815673828,-8.80976581573486,3.11612224578857,-2.31682825088501,-2.26702618598938,2.98756766319275,-0.95129978656769
192,679451142,123.72439575195312,66.69886016845703,121.71183776855469,-8.82047080993652,3.07513403892517,-2.30103683471680,-1.69124412536621,2.76802802085876,-0.99051535129547
193,679459475,123.75151062011719,66.70201110839844,121.75617218017578,-8.85834312438965,3.08722114562988,-2.36948609352112,-0.86521035432816,2.81385159492493,-1.13907778263092
194,679467808,123.80293273925781,66.69859313964844,121.83331298828125,-8.92221355438232,3.13712072372437,-2.44137835502625,-0.97522372007370,2.94258928298950,-1.41735100746155
195,679476141,123.82890319824219,66.70922088623047,121.87863159179688,-8.92452716827393,3.23415231704712,-2.46431183815002,-1.11205482482910,2.34826183319092,-1.91413903236389
196,679484474,123.86113739013672,66.72061157226562,121.94353485107422,-8.84739398956299,3.24504280090332,-2.43293642997742,-1.29616999626160,1.21741902828217,-2.39368867874146
197,679492807,123.87245178222656,66.74451446533203,121.96981811523438,-8.80345726013184,3.28699612617493,-2.42550683021545,-0.77128297090530,0.70293146371841,-2.73469090461731
198,679501140,123.90613555908203,66.76277923583984,122.03131866455078,-8.86775207519531,3.21311521530151,-2.36461925506592,-1.07153308391571,0.69865381717682,-3.06803441047668
199,679509473,123.91792297363281,66.79261779785156,122.06201171875000,-8.91147708892822,3.12599110603333,-2.34177422523499,-1.20283150672913,0.47094324231148,-3.44033718109131
200,679517806,123.94229125976562,66.81774139404297,122.10491943359375,-8.87954235076904,3.04499888420105,-2.34776425361633,-0.65986108779907,-0.33082067966461,-3.39769005775452
201,679526139,123.94593048095703,66.85375213623047,122.11502838134766,-8.88832855224609,3.05977010726929,-2.44815206527710,0.08731893450022,-0.75337874889374,-3.50883030891418
202,679534472,123.96935272216797,66.88296508789062,122.14850616455078,-8.87339210510254,3.09669446945190,-2.51946783065796,0.48608124256134,-1.06848466396332,-3.47527480125427
203,679542805,123.97551727294922,66.91944885253906,122.15847778320312,-8.88678932189941,3.10763740539551,-2.52775096893311,0.40770173072815,-0.80066239833832,-3.55293726921082
204,679551138,124.00911712646484,66.94914245605469,122.19812011718750,-8.88278293609619,3.11784672737122,-2.40074682235718,1.27015852928162,-0.99351197481155,-3.60052824020386
205,679559471,124.01570892333984,66.99040985107422,122.18700408935547,-8.84540653228760,3.13844728469849,-2.39329051971436,2.78749489784241,-1.94651556015015,-3.47207379341125
206,679567804,124.04614257812500,67.02066802978516,122.21461486816406,-8.78788661956787,3.11525917053223,-2.50493669509888,2.10387659072876,-1.49813818931580,-3.34546279907227
207,679576137,124.06387329101562,67.05139923095703,122.22631835937500,-8.79091548919678,3.15264630317688,-2.46552610397339,1.60388672351837,-0.35500052571297,-3.02028989791870
208,679584470,124.10694122314453,67.06991577148438,122.27185058593750,-8.80626010894775,3.21741819381714,-2.42923188209534,1.59558761119843,-0.04332647845149,-2.65700340270996
209,679592803,124.12759399414062,67.09474182128906,122.29004669189453,-8.82464408874512,3.26759386062622,-2.41293168067932,1.23509299755096,0.28495836257935,-2.60052371025085
210,679601136,124.17562866210938,67.10842895507812,122.35409545898438,-8.82372474670410,3.28034639358521,-2.46590018272400,0.19346432387829,0.94050347805023,-2.65859127044678
211,679609469,124.20690917968750,67.12910461425781,122.39594268798828,-8.79265213012695,3.27278423309326,-2.29410338401794,-0.10090728104115,1.46600508689880,-2.81045794487000
212,679617802,124.26367187500000,67.14430999755859,122.46474456787109,-8.78389739990234,3.26261734962463,-2.25666809082031,0.70134329795837,0.99739271402359,-2.96153044700623
213,679626135,124.29571533203125,67.16731262207031,122.50463867187500,-8.77018737792969,3.27260875701904,-2.39412474632263,0.20370998978615,1.22031331062317,-2.98852801322937
214,679634468,124.34961700439453,67.17922973632812,122.58902740478516,-8.76173400878906,3.25428366661072,-2.37798142433167,-1.15513789653778,1.74307417869568,-3.02520728111267
215,679642801,124.37619018554688,67.20100402832031,122.63765716552734,-8.77087593078613,3.23004078865051,-2.25434565544128,-1.42316508293152,1.62852716445923,-3.09582543373108
216,679651134,124.42678833007812,67.21369934082031,122.72044372558594,-8.75477123260498,3.18699383735657,-2.23462557792664,-1.41578817367554,1.61269760131836,-3.10758233070374
217,679659467,124.45755004882812,67.23391723632812,122.77374267578125,-8.72708892822266,3.16116261482239,-2.24571156501770,-1.43730437755585,1.90354752540588,-3.06099057197571
218,679667800,124.52276611328125,67.23701477050781,122.87448883056641,-8.68881034851074,3.18989801406860,-2.34350752830505,-1.68850338459015,2.97012424468994,-2.66327857971191
219,679676133,124.57056427001953,67.24349975585938,122.95608520507812,-8.70771026611328,3.25018358230591,-2.54523253440857,-2.52006936073303,3.91001319885254,-2.44770932197571
220,679684466,124.64862060546875,67.23452758789062,123.08625030517578,-8.73320674896240,3.26785802841187,-2.58512067794800,-3.50496220588684,4.94070386886597,-2.30247640609741
221,679692799,124.71031188964844,67.23007202148438,123.19712066650391,-8.72742843627930,3.27081632614136,-2.58924770355225,-4.09042644500732,5.76351022720337,-2.15109610557556
222,679701132,124.79930877685547,67.21391296386719,123.35070800781250,-8.71240520477295,3.28549957275391,-2.56288599967957,-4.73321580886841,6.25530338287354,-2.24981355667114
223,679709465,124.86721038818359,67.20755767822266,123.47902679443359,-8.71455478668213,3.28486418724060,-2.48030567169189,-5.27324104309082,6.55268526077271,-2.44463539123535
224,679717798,124.95051574707031,67.19287109375000,123.63679504394531,-8.70463371276855,3.28135132789612,-2.44486665725708,-6.15593385696411,6.36247396469116,-2.62998008728027
225,679726131,125.01499176025391,67.18836212158203,123.77435302734375,-8.71837043762207,3.23281407356262,-2.39228081703186,-6.70592260360718,6.77593851089478,-2.88604569435120
226,679734464,125.11169433593750,67.17055511474609,123.95533752441406,-8.73712348937988,3.17447876930237,-2.38772273063660,-6.87126302719116,7.34116935729980,-2.95604991912842
227,679742797,125.18201446533203,67.16428375244141,124.10221862792969,-8.75433444976807,3.09074139595032,-2.25376892089844,-7.02986621856689,7.24275922775269,-2.98261189460754
228,679751130,125.27313995361328,67.14438629150391,124.28492736816406,-8.82544326782227,3.08115029335022,-2.42967414855957,-7.75054788589478,7.55340814590454,-2.85459136962891
229,679759463,125.34241485595703,67.13157653808594,124.44416046142578,-8.87016963958740,3.08380627632141,-2.49312162399292,-8.52130603790283,8.15772342681885,-2.70116209983826
230,679767796,125.43424987792969,67.10297393798828,124.63925933837891,-8.88768005371094,3.13119268417358,-2.60864114761353,-9.47382354736328,8.78409576416016,-2.48210930824280
231,679776129,125.50284576416016,67.08132171630859,124.81314086914062,-8.90700054168701,3.12877583503723,-2.62770509719849,-10.21374320983887,9.32842540740967,-2.26105880737305
232,679784462,125.59335327148438,67.05014801025391,125.01708984375000,-8.89263248443604,3.08810019493103,-2.67664098739624,-10.32326889038086,9.18890380859375,-2.43718194961548
233,679792795,125.65963745117188,67.03139495849609,125.18978881835938,-8.89078617095947,3.08073139190674,-2.68204832077026,-10.35492992401123,9.08488464355469,-2.54560780525208
234,679801128,125.75325012207031,67.00033569335938,125.39994049072266,-8.87211036682129,3.12168097496033,-2.63221573829651,-10.48527812957764,9.33326530456543,-2.61550807952881
235,679809461,125.82025146484375,66.98194122314453,125.57487487792969,-8.87219429016113,3.15461945533752,-2.57531881332397,-10.50838279724121,9.14909934997559,-2.67160344123840
236,679817794,125.91333770751953,66.95307922363281,125.78159332275391,-8.86534309387207,3.15025830268860,-2.55661797523499,-10.41325187683105,9.10027790069580,-2.83865976333618
237,679826127,125.98316955566406,66.93892669677734,125.95707702636719,-8.85796546936035,3.11519932746887,-2.45592713356018,-10.22027492523193,8.86726760864258,-3.13209652900696
238,679834460,126.07479858398438,66.91664123535156,126.15656280517578,-8.85787963867188,3.02573680877686,-2.39292573928833,-9.83618831634521,8.36158847808838,-3.33626747131348
239,679842793,126.14657592773438,66.90691375732422,126.33086395263672,-8.88073444366455,2.96235299110413,-2.55865526199341,-9.85373306274414,8.50523281097412,-3.55854749679565
240,679851126,126.25296020507812,66.88134765625000,126.54728698730469,-8.93125438690186,2.98019647598267,-2.62017297744751,-10.04786396026611,9.28964424133301,-3.54607367515564
241,679859459,126.33089447021484,66.86498260498047,126.73808288574219,-8.97385120391846,2.99159240722656,-2.62519216537476,-10.92899608612061,9.59696483612061,-3.40816712379456
242,679867792,126.42481994628906,66.83679962158203,126.94886016845703,-8.95916366577148,3.05116486549377,-2.62623715400696,-10.93759822845459,9.25001811981201,-3.16096305847168
243,679876125,126.48561096191406,66.82048034667969,127.12118530273438,-8.98937320709229,3.07561135292053,-2.60739302635193,-10.94080162048340,8.89226341247559,-2.92620873451233
244,679884458,126.56532287597656,66.79434967041016,127.31240844726562,-9.01959228515625,3.07543921470642,-2.49831771850586,-10.79954051971436,8.45392990112305,-2.90963697433472
245,679892791,126.60818481445312,66.78388977050781,127.46133422851562,-8.96953678131104,3.08540368080139,-2.48430490493774,-10.50751113891602,7.58281373977661,-2.85953545570374
246,679901124,126.67393493652344,66.76668548583984,127.63575744628906,-8.96103763580322,3.05556535720825,-2.43570804595947,-10.01328659057617,6.97276067733765,-3.15102553367615
247,679909457,126.71183013916016,66.76449584960938,127.77066802978516,-8.91002655029297,3.01350975036621,-2.42905640602112,-9.55663299560547,6.45386552810669,-3.27522826194763
248,679917790,126.76588439941406,66.75603485107422,127.92356872558594,-8.86009693145752,3.01904082298279,-2.43177103996277,-9.47446250915527,5.68487453460693,-3.50729298591614
249,679926123,126.79425048828125,66.76144409179688,128.04869079589844,-8.87268924713135,3.03537344932556,-2.51808762550354,-9.61608409881592,5.52581071853638,-3.73833370208740
250,679934456,126.84152984619141,66.75986480712891,128.19161987304688,-8.91336441040039,3.03952074050903,-2.43904066085815,-9.20502662658691,4.83842611312866,-3.87951898574829
251,679942789,126.85553741455078,66.77244567871094,128.28787231445312,-8.89626407623291,3.04098343849182,-2.58205485343933,-8.16088771820068,3.90778470039368,-3.61333608627319
252,679951122,126.89322662353516,66.77253723144531,128.41061401367188,-8.92924213409424,3.06388092041016,-2.62404322624207,-8.07597732543945,3.92689347267151,-3.45237708091736
253,679959455,126.90345764160156,66.78457641601562,128.49874877929688,-8.93124008178711,3.06800913810730,-2.54583716392517,-7.71888828277588,3.63112592697144,-3.32876229286194
254,679967788,126.93876647949219,66.78689575195312,128.60296630859375,-8.98132228851318,3.00411176681519,-2.39289069175720,-6.76163244247437,3.19980692863464,-3.24989557266235
255,679976121,126.93482971191406,66.80485534667969,128.66029357910156,-9.00573730468750,2.92698884010315,-2.37079501152039,-6.02212429046631,2.03182363510132,-3.02103233337402
256,679984454,126.95001983642578,66.80952453613281,128.74031066894531,-9.00397300720215,2.90212225914001,-2.41508221626282,-6.06116008758545,1.97106647491455,-2.65533781051636
257,679992787,126.94824981689453,66.81977081298828,128.80168151855469,-9.00403594970703,2.95696353912354,-2.40505933761597,-6.21300220489502,2.73508810997009,-2.39663457870483
258,680001120,126.97634887695312,66.81602478027344,128.89628601074219,-8.97976779937744,2.99635291099548,-2.42446398735046,-5.90542554855347,3.07416892051697,-2.17881083488464
259,680009453,126.97948455810547,66.82405090332031,128.96348571777344,-8.85807228088379,2.98327946662903,-2.41603732109070,-6.26492214202881,3.10780096054077,-2.35175848007202
260,680017786,127.01153564453125,66.82384490966797,129.05334472656250,-8.81503391265869,3.01901674270630,-2.39824247360229,-5.40758705139160,2.83367681503296,-2.48986983299255
261,680026119,127.02639770507812,66.83701324462891,129.11714172363281,-8.87075328826904,3.01739048957825,-2.39478254318237,-4.48457908630371,2.60427618026733,-2.74708843231201
262,680034452,127.07326507568359,66.84232330322266,129.21003723144531,-8.86312866210938,2.96156883239746,-2.34488511085510,-3.88725495338440,2.52761268615723,-3.08130288124084
263,680042785,127.08833312988281,66.86230468750000,129.26066589355469,-8.82217216491699,2.90113306045532,-2.26725387573242,-3.00855851173401,1.60014700889587,-3.02674460411072
264,680051118,127.11627197265625,66.87844085693359,129.31623840332031,-8.82387924194336,2.87511658668518,-2.31655263900757,-1.85822319984436,0.30414345860481,-2.98929667472839
265,680059451,127.10778808593750,66.90972137451172,129.32427978515625,-8.87438678741455,2.89289736747742,-2.40096282958984,-1.13764345645905,-0.82732695341110,-2.89749526977539
266,680067784,127.11380767822266,66.93379974365234,129.34968566894531,-8.92813014984131,2.97420024871826,-2.58064341545105,-1.39972841739655,-1.29540169239044,-2.93266367912292
267,680076117,127.10277557373047,66.96688079833984,129.35855102539062,-8.98013210296631,3.03186702728271,-2.67493677139282,-1.53402388095856,-0.92983520030975,-3.09085702896118
268,680084450,127.11408233642578,66.99032592773438,129.39189147949219,-9.00675487518311,2.99522233009338,-2.55603480339050,-1.49393761157990,-1.00783061981201,-3.03424978256226
269,680092783,127.09747314453125,67.02087402343750,129.39569091796875,-8.98974037170410,2.95374512672424,-2.46566486358643,-1.64344763755798,-0.93872326612473,-2.70449209213257
270,680101116,127.09918212890625,67.03454589843750,129.42437744140625,-9.00298118591309,2.90306568145752,-2.41371679306030,-2.32555460929871,-0.42672035098076,-2.00414729118347
271,680109449,127.06652069091797,67.05413055419922,129.42037963867188,-9.02605628967285,2.84811425209045,-2.44774198532104,-2.70705318450928,-0.43791380524635,-1.43533205986023
272,680117782,127.06484985351562,67.05956268310547,129.45042419433594,-9.01407146453857,2.87086391448975,-2.42048621177673,-2.60426354408264,0.13524316251278,-1.15951800346375
273,680126115,127.03728485107422,67.07254028320312,129.44961547851562,-8.98875236511230,2.88665580749512,-2.38455104827881,-2.45393347740173,0.15150819718838,-0.89574271440506
274,680134448,127.02278137207031,67.07740783691406,129.45989990234375,-8.94658470153809,2.86690306663513,-2.33853149414062,-2.15557861328125,-0.48194462060928,-0.56334662437439
275,680142781,126.98091125488281,67.09278869628906,129.43965148925781,-8.86827468872070,2.91552257537842,-2.29360771179199,-2.02007937431335,-0.74756419658661,-0.57820290327072
276,680151114,126.95896911621094,67.09753417968750,129.44334411621094,-8.87935352325439,2.91359210014343,-2.20892000198364,-2.38759255409241,-0.67166936397552,-0.35446259379387
277,680159447,126.90783691406250,67.11131286621094,129.40950012207031,-8.86452102661133,2.87362790107727,-2.20950484275818,-1.62905240058899,-1.13912904262543,-0.04588789865375
278,680167780,126.88513946533203,67.11421203613281,129.39265441894531,-8.79975700378418,2.88271021842957,-2.32291412353516,-0.63084018230438,-1.14020478725433,0.29571628570557
279,680176113,126.83931732177734,67.12194061279297,129.35354614257812,-8.79984092712402,2.90903949737549,-2.46155762672424,-0.40999424457550,-0.90778124332428,0.67516559362411
280,680184446,126.82438659667969,67.11793518066406,129.35641479492188,-8.74147510528564,2.96697783470154,-2.49851655960083,-0.68839532136917,-0.27321425080299,0.73430883884430
281,680192779,126.78940582275391,67.11965179443359,129.32928466796875,-8.74240493774414,2.98841476440430,-2.38782644271851,-0.43445581197739,-0.03008391894400,0.91824465990067
282,680201112,126.78453826904297,67.11409759521484,129.33450317382812,-8.78642368316650,3.00450873374939,-2.46114301681519,0.16188195347786,-0.05323918908834,0.79801148176193
283,680209445,126.77120971679688,67.11165618896484,129.32342529296875,-8.80253887176514,3.00415825843811,-2.52872300148010,0.38913142681122,0.86522316932678,0.86921900510788
284,680217778,126.78681945800781,67.09568023681641,129.35231018066406,-8.76649570465088,3.02276110649109,-2.60419702529907,-0.39600887894630,1.71822845935822,1.04019403457642
285,680226111,126.78944396972656,67.08075714111328,129.37623596191406,-8.79964733123779,3.06770133972168,-2.63167572021484,-1.56276273727417,3.06218171119690,1.08714473247528
286,680234444,126.82479858398438,67.05220031738281,129.44244384765625,-8.83498764038086,3.04250884056091,-2.59360957145691,-2.27547883987427,4.04033803939819,1.16875195503235
287,680242777,126.83829498291016,67.02879333496094,129.48744201660156,-8.83947372436523,2.97971963882446,-2.61171793937683,-2.58707594871521,4.46471452713013,1.31047546863556
288,680251110,126.87255859375000,66.99441528320312,129.56282043457031,-8.87164878845215,2.92543029785156,-2.73098373413086,-3.64604544639587,4.86009645462036,1.39546370506287
289,680259443,126.87900543212891,66.96629333496094,129.61669921875000,-8.88948631286621,2.93549823760986,-2.76700234413147,-4.41352462768555,5.13862514495850,1.50516927242279
290,680267776,126.91152954101562,66.93199157714844,129.69094848632812,-8.89567852020264,2.92379307746887,-2.70154643058777,-3.67698764801025,4.77472400665283,1.44064712524414
291,680276109,126.92018890380859,66.91426849365234,129.72358703613281,-8.89824104309082,2.90584993362427,-2.63474202156067,-1.79882359504700,3.59106421470642,1.10141217708588
292,680284442,126.95271301269531,66.89387512207031,129.77180480957031,-8.91342067718506,2.94944643974304,-2.63148593902588,-0.94315457344055,2.79738187789917,0.81414854526520
293,680292775,126.96200561523438,66.88576507568359,129.78973388671875,-8.90647697448730,2.98255205154419,-2.56424427032471,-0.10113781690598,2.34611034393311,0.59614574909210
294,680301108,127.00250244140625,66.87287902832031,129.83021545410156,-8.88416385650635,3.03675723075867,-2.52524232864380,0.77449756860733,1.98307967185974,0.30598765611649
295,680309441,127.01898193359375,66.87195587158203,129.84425354003906,-8.84551715850830,3.02338266372681,-2.53892326354980,1.19042146205902,1.67314743995667,0.01444642711431
296,680317774,127.07221221923828,66.86043548583984,129.90307617187500,-8.83523464202881,3.01235485076904,-2.59821367263794,0.83512651920319,2.37602782249451,-0.19649961590767
297,680326107,127.10207366943359,66.85402679443359,129.93894958496094,-8.86693000793457,3.01090955734253,-2.59906864166260,0.38526371121407,2.89133501052856,-0.08120993524790
298,680334440,127.16558074951172,66.83326721191406,130.01542663574219,-8.89290428161621,3.02268385887146,-2.75156474113464,0.05314953625202,3.72553920745850,0.16595463454723
299,680342773,127.19118499755859,66.81816101074219,130.05628967285156,-8.91206550598145,2.98122501373291,-2.79355406761169,-0.67420506477356,3.70320343971252,0.60270291566849
300,680351106,127.23609924316406,66.79274749755859,130.11100769042969,-8.92389488220215,2.97885894775391,-2.80137276649475,-0.23535642027855,3.38151454925537,1.10822558403015
301,680359439,127.25164031982422,66.77551269531250,130.12828063964844,-8.96591758728027,3.00118613243103,-2.70005917549133,0.72152739763260,2.96682024002075,1.47683990001678
302,680367772,127.27524566650391,66.75453186035156,130.14898681640625,-9.02581119537354,3.02255272865295,-2.71267080307007,1.06826722621918,1.70813643932343,1.70037555694580
303,680376105,127.24855804443359,66.74901580810547,130.11663818359375,-9.02245235443115,3.02263164520264,-2.72937893867493,1.12456738948822,0.24592229723930,1.78067612648010
304,680384438,127.24488067626953,66.73969268798828,130.10395812988281,-8.99944877624512,3.01746916770935,-2.63810968399048,1.61052060127258,-0.47016209363937,1.59110522270203
305,680392771,127.20202636718750,66.74584960937500,130.04348754882812,-8.99370765686035,3.02415680885315,-2.57480788230896,2.28484082221985,-1.66767871379852,1.47161459922791
306,680401104,127.18081665039062,66.75103759765625,129.99586486816406,-8.96265792846680,2.98622035980225,-2.62328886985779,3.17255377769470,-2.79875230789185,1.16908502578735
307,680409437,127.12554168701172,66.77075958251953,129.91246032714844,-8.92732715606689,3.00390410423279,-2.67266058921814,3.32229447364807,-3.52122759819031,0.82385629415512
308,680417770,127.09202575683594,66.78472137451172,129.85612487792969,-8.93721294403076,3.00122165679932,-2.65117716789246,2.92747664451599,-3.85052442550659,0.66394662857056
309,680426103,127.01977539062500,66.81066894531250,129.76364135742188,-8.97299098968506,3.04278635978699,-2.62235331535339,2.28942608833313,-4.31506395339966,0.47486233711243
310,680434436,126.96921539306641,66.82977294921875,129.69392395019531,-8.90928268432617,3.04362869262695,-2.69714689254761,1.99493908882141,-4.62248563766479,0.45460143685341
311,680442769,126.89095306396484,66.85500335693359,129.60641479492188,-8.87985134124756,3.05637884140015,-2.69392085075378,1.01865255832672,-4.07257366180420,0.38710793852806
312,680451102,126.84168243408203,66.87282562255859,129.55012512207031,-8.90491199493408,3.12348389625549,-2.66711282730103,0.71051323413849,-4.04644680023193,0.20488825440407
313,680459435,126.76039123535156,66.90066528320312,129.46997070312500,-8.88620090484619,3.18592643737793,-2.65248250961304,-0.15177714824677,-3.98356389999390,-0.08704996854067
314,680467768,126.70362854003906,66.92378234863281,129.41415405273438,-8.90989589691162,3.21679115295410,-2.51253700256348,-0.09957534074783,-4.47336006164551,-0.29373121261597
315,680476101,126.60372924804688,66.96461486816406,129.30656433105469,-8.88869571685791,3.22601175308228,-2.47146034240723,0.64809143543243,-5.94008255004883,-0.58499073982239
316,680484434,126.52965545654297,67.00133514404297,129.22630310058594,-8.83614826202393,3.15871572494507,-2.43079137802124,0.57032650709152,-6.38925313949585,-0.94881528615952
317,680492767,126.43836212158203,67.04402923583984,129.12956237792969,-8.85066318511963,3.15493440628052,-2.32511782646179,0.48446768522263,-5.65568733215332,-1.10109198093414
318,680501100,126.37892150878906,67.07403564453125,129.07241821289062,-8.85959911346436,3.10228371620178,-2.28918075561523,-0.61823791265488,-4.87847423553467,-1.07883322238922
319,680509433,126.30198669433594,67.10787963867188,129.00379943847656,-8.83321666717529,3.02617740631104,-2.37218022346497,-0.89336055517197,-3.96122884750366,-1.04676413536072
320,680517766,126.24716949462891,67.13095092773438,128.96537780761719,-8.84565830230713,2.97864317893982,-2.46949243545532,-1.22012126445770,-3.95713067054749,-0.72630447149277
321,680526099,126.14588928222656,67.16658020019531,128.87686157226562,-8.78251266479492,2.89594125747681,-2.58397030830383,-1.61522090435028,-4.82609367370605,-0.68772941827774
322,680534432,126.06091308593750,67.19568634033203,128.80975341796875,-8.72185516357422,2.85423517227173,-2.63950467109680,-2.10063624382019,-5.31302022933960,-0.64569646120071
323,680542765,125.94188690185547,67.23880004882812,128.69538879394531,-8.77039909362793,2.90781450271606,-2.58336877822876,-0.87681365013123,-6.31394720077515,-0.73032587766647
324,680551098,125.84162139892578,67.27901458740234,128.59977722167969,-8.83949947357178,2.93458914756775,-2.68313884735107,-0.49785110354424,-7.27714586257935,-0.88857066631317
325,680559431,125.71430206298828,67.33006286621094,128.46723937988281,-8.86355018615723,2.93080663681030,-2.57405924797058,0.14835768938065,-7.54207420349121,-1.05309092998505
326,680567764,125.61033630371094,67.37610626220703,128.34826660156250,-8.85012245178223,2.86622834205627,-2.53694248199463,1.20310044288635,-8.41469860076904,-0.95657634735107
327,680576097,125.46008300781250,67.43730163574219,128.17953491210938,-8.82143974304199,2.86011195182800,-2.75093197822571,1.41377782821655,-9.58406639099121,-1.12381184101105
328,680584430,125.32849121093750,67.49353027343750,128.03140258789062,-8.86782360076904,2.90481925010681,-2.76287794113159,0.95794695615768,-10.15767192840576,-1.25651931762695
329,680592763,125.16317749023438,67.56065368652344,127.84555816650391,-8.88278865814209,2.92278099060059,-2.78979778289795,1.52245903015137,-10.60184764862061,-1.32951986789703
330,680601096,125.02944183349609,67.62007904052734,127.69387054443359,-8.92635631561279,2.95400929450989,-2.72085046768188,1.82242727279663,-10.76344871520996,-1.34888410568237
331,680609429,124.84860229492188,67.69435882568359,127.48586273193359,-8.90727710723877,2.94767808914185,-2.54447364807129,2.13704657554626,-11.87743568420410,-1.54350090026855
332,680617762,124.69071960449219,67.76484680175781,127.30284118652344,-8.83056068420410,2.93316102027893,-2.49370908737183,2.44754314422607,-12.70352268218994,-1.68189501762390
333,680626095,124.50149536132812,67.84104156494141,127.08116149902344,-8.80246067047119,2.88995695114136,-2.31429338455200,2.67481851577759,-12.46584892272949,-1.49081277847290
334,680634428,124.35604095458984,67.90503692626953,126.90744018554688,-8.76554870605469,2.85433936119080,-2.14457368850708,2.65975666046143,-11.80348873138428,-1.43351352214813
335,680642761,124.18385314941406,67.97173309326172,126.70839691162109,-8.80201816558838,2.85651373863220,-2.14072775840759,2.22539043426514,-10.92466354370117,-1.23162221908569
336,680651094,124.05507659912109,68.02453613281250,126.56249237060547,-8.79646396636963,2.89136147499084,-2.10425496101379,1.23388886451721,-9.84612464904785,-1.17465591430664
337,680659427,123.89863586425781,68.08213806152344,126.39511108398438,-8.84151077270508,2.90458798408508,-2.14755940437317,0.60751849412918,-9.09575748443604,-1.20331847667694
338,680667760,123.78195953369141,68.12877655029297,126.27449035644531,-8.83420562744141,2.93064117431641,-2.08443093299866,0.14305549860001,-8.52115154266357,-1.18213534355164
339,680676093,123.63259887695312,68.18297576904297,126.11782073974609,-8.84885120391846,2.91237449645996,-2.01961755752563,0.27834990620613,-8.44146633148193,-1.19322633743286
340,680684426,123.51887512207031,68.22814941406250,126.00283813476562,-8.85145854949951,2.86503672599792,-2.13236260414124,-0.06010379642248,-8.19907760620117,-1.20920956134796
341,680692759,123.37091064453125,68.27985382080078,125.85067749023438,-8.91554355621338,2.86628794670105,-2.00318551063538,-0.04827002435923,-8.08222579956055,-1.11768996715546
342,680701092,123.26066589355469,68.32553863525391,125.73816680908203,-8.94141197204590,2.85046410560608,-1.95838773250580,0.02727915905416,-8.07213401794434,-1.36886310577393
343,680709425,123.12189483642578,68.37613677978516,125.59725952148438,-8.96632099151611,2.88106989860535,-1.93356049060822,-0.18868729472160,-7.56525516510010,-1.33226060867310
344,680717758,123.02617645263672,68.41885375976562,125.49913024902344,-8.99264049530029,2.91169023513794,-1.96131491661072,-0.37633714079857,-7.10627222061157,-1.56504249572754
345,680726091,122.90260314941406,68.46727752685547,125.38516998291016,-9.01767635345459,2.94776058197021,-1.94802832603455,-1.36391973495483,-6.40154886245728,-1.80845499038696
346,680734424,122.82732391357422,68.50350952148438,125.33605194091797,-8.97443389892578,2.97060275077820,-2.00364947319031,-2.71811866760254,-5.04627418518066,-1.96805715560913
347,680742757,122.72560882568359,68.54203796386719,125.27184295654297,-8.98191833496094,2.97851634025574,-2.06888699531555,-4.29096078872681,-3.90572285652161,-2.02661132812500
348,680751090,122.66274261474609,68.56948089599609,125.26525115966797,-8.97040939331055,2.98894333839417,-2.12214303016663,-6.08001184463501,-2.82989883422852,-2.12719821929932
349,680759423,122.56860351562500,68.60068511962891,125.23323059082031,-9.06910800933838,2.98246407508850,-2.02430963516235,-6.97425699234009,-2.23016762733459,-2.05896210670471
350,680767756,122.50515747070312,68.62451934814453,125.23036956787109,-9.07402992248535,2.96760439872742,-1.97946810722351,-6.78038311004639,-2.38090729713440,-1.91088604927063
351,680776089,122.39453125000000,68.65992736816406,125.17506408691406,-9.07978057861328,2.93048834800720,-1.99706733226776,-6.34768199920654,-3.36221432685852,-1.95583903789520
352,680784422,122.30284118652344,68.69744873046875,125.13179779052734,-9.04904842376709,2.93112850189209,-1.97198748588562,-5.39096450805664,-4.79525375366211,-2.30437231063843
353,680792755,122.16201782226562,68.74775695800781,125.02683258056641,-9.04636764526367,2.91424965858459,-1.95287024974823,-4.41634321212769,-6.12763023376465,-2.33213806152344
354,680801088,122.04388427734375,68.79656982421875,124.94190979003906,-9.03787803649902,2.92617273330688,-2.05241751670837,-4.08474111557007,-6.95937538146973,-2.54391646385193
355,680809421,121.88382720947266,68.85462188720703,124.81612396240234,-9.06618118286133,2.95701980590820,-2.10310840606689,-4.38847398757935,-7.35765075683594,-2.68558835983276
356,680817754,121.75712585449219,68.90623474121094,124.72234344482422,-9.07116031646729,2.93880605697632,-2.01104450225830,-4.09455060958862,-7.42788553237915,-2.66545605659485
357,680826087,121.59860992431641,68.96307373046875,124.59598541259766,-9.08455085754395,2.89755582809448,-2.08170843124390,-4.12915563583374,-7.27156114578247,-2.60702943801880
358,680834420,121.48099517822266,69.01128387451172,124.51364135742188,-9.07039356231689,2.86835193634033,-2.10603213310242,-4.42763853073120,-6.70709991455078,-2.64429831504822
359,680842753,121.33321380615234,69.06308746337891,124.40036773681641,-9.06482696533203,2.81300902366638,-2.06042957305908,-4.29513692855835,-6.44414567947388,-2.43216156959534
360,680851086,121.21727752685547,69.10815429687500,124.31527709960938,-9.04038238525391,2.84412550926208,-2.01291060447693,-3.81141161918640,-6.61573553085327,-2.26689887046814
361,680859419,121.06066131591797,69.16062927246094,124.18375396728516,-9.04041576385498,2.87221240997314,-1.96486926078796,-3.30345559120178,-7.12886571884155,-2.14502596855164
362,680867752,120.93863677978516,69.20740509033203,124.08305358886719,-8.99241638183594,2.91059708595276,-1.96348071098328,-3.02031588554382,-7.19154405593872,-2.16971802711487
363,680876085,120.78383636474609,69.25821685791016,123.95606231689453,-8.94940185546875,2.95051956176758,-2.01214671134949,-3.58795309066772,-6.82999897003174,-2.12463712692261
364,680884418,120.67408752441406,69.30005645751953,123.87881469726562,-8.94154357910156,2.99560999870300,-1.99539458751678,-3.77829170227051,-6.12829494476318,-2.13426756858826
365,680892751,120.54354858398438,69.34229278564453,123.78779602050781,-8.92696285247803,3.00474190711975,-1.97874999046326,-4.70514297485352,-4.96566486358643,-2.05806541442871
366,680901084,120.45536041259766,69.37557983398438,123.73995971679688,-8.98157215118408,3.01804828643799,-1.82080328464508,-5.11276817321777,-4.31975126266479,-2.03347611427307
367,680909417,120.33255004882812,69.41440582275391,123.66641998291016,-8.98550701141357,3.05374884605408,-1.88251364231110,-5.73673057556152,-4.10933065414429,-2.10947322845459
368,680917750,120.24562835693359,69.44426727294922,123.63567352294922,-8.96926498413086,3.03353023529053,-1.90663564205170,-6.42959642410278,-3.61149239540100,-1.98998332023621
369,680926083,120.12446594238281,69.48043060302734,123.56272888183594,-8.99960422515869,2.97755980491638,-1.87616157531738,-5.60392141342163,-3.91061496734619,-1.86777734756470
370,680934416,120.03005981445312,69.51124572753906,123.50698089599609,-9.05818557739258,2.98012065887451,-1.93032920360565,-4.94929790496826,-4.42231082916260,-1.67269933223724
371,680942749,119.89640808105469,69.54661560058594,123.41838836669922,-9.04526805877686,2.96634769439697,-1.99036681652069,-5.34140014648438,-4.41985130310059,-1.48171949386597
372,680951082,119.80361175537109,69.57349395751953,123.37399291992188,-9.03293609619141,2.94918107986450,-1.87547302246094,-5.09207105636597,-4.05594968795776,-1.35874545574188
373,680959415,119.68856048583984,69.60470581054688,123.29421997070312,-9.03986072540283,2.94492626190186,-1.83468556404114,-4.09700918197632,-3.84112334251404,-1.25744104385376
374,680967748,119.61315917968750,69.63261413574219,123.24184417724609,-9.01871585845947,2.95309615135193,-1.85490179061890,-2.99464964866638,-4.11012458801270,-1.47126877307892
375,680976081,119.51422882080078,69.66954803466797,123.15787506103516,-9.01489353179932,2.95830059051514,-1.79739737510681,-1.68637740612030,-4.32100629806519,-1.78517150878906
376,680984414,119.46150207519531,69.70188140869141,123.11537933349609,-8.96892166137695,2.96230173110962,-1.74123299121857,-0.94264233112335,-4.14114284515381,-2.08688139915466
377,680992747,119.39035797119141,69.74053192138672,123.04940032958984,-8.92358303070068,2.95234131813049,-1.71935963630676,-0.37554314732552,-3.76146340370178,-2.35355138778687
378,681001080,119.36943054199219,69.76954650878906,123.04376983642578,-8.90564155578613,2.95204925537109,-1.89164412021637,-1.25065338611603,-2.59501624107361,-2.50103783607483
379,681009413,119.31896972656250,69.80054473876953,123.02275848388672,-8.87666702270508,2.90635395050049,-1.91721498966217,-2.95330858230591,-1.67874431610107,-2.47370767593384
380,681017746,119.30362701416016,69.81896209716797,123.04662322998047,-8.88930606842041,2.93182373046875,-2.09306931495667,-3.99270868301392,-0.86879646778107,-2.01956725120544
381,681026079,119.26058197021484,69.83676147460938,123.05043792724609,-8.93070507049561,2.98155689239502,-2.15204739570618,-4.86231136322021,-0.00518688280135,-1.60008287429810
382,681034412,119.24668884277344,69.84599304199219,123.08234405517578,-8.99318313598633,3.00327992439270,-2.03829979896545,-4.71121358871460,-0.06479120999575,-1.22737002372742
383,681042745,119.20159912109375,69.86006164550781,123.08730316162109,-8.98214530944824,2.94929862022400,-2.03895378112793,-5.23976325988770,0.25329920649529,-1.23123788833618
384,681051078,119.19351959228516,69.86842346191406,123.13971710205078,-8.96185302734375,3.01003098487854,-1.97010719776154,-6.18141889572144,0.64965385198593,-1.54096519947052
385,681059411,119.15501403808594,69.88742065429688,123.15313720703125,-9.00874710083008,3.05584573745728,-1.90550160408020,-5.39949417114258,0.26828351616859,-1.91577839851379
386,681067744,119.13724517822266,69.90676879882812,123.17752838134766,-9.07079792022705,3.02947807312012,-1.89184272289276,-4.43588590621948,-0.94702237844467,-2.16833472251892
387,681076077,119.07142639160156,69.93762207031250,123.13952636718750,-9.10180091857910,2.91669392585754,-1.74337804317474,-2.88089752197266,-2.27522301673889,-2.12929868698120
388,681084410,119.04347991943359,69.96212768554688,123.13436126708984,-9.08944225311279,2.83070373535156,-1.86926043033600,-2.26018714904785,-2.33387923240662,-2.13644456863403
389,681092743,118.97212982177734,69.99355316162109,123.08129119873047,-9.09259605407715,2.80437564849854,-1.96746754646301,-1.84923231601715,-2.84793162345886,-1.89751541614532
390,681101076,118.92941284179688,70.01988220214844,123.05175781250000,-9.10370922088623,2.79056620597839,-2.11414456367493,-1.33881759643555,-3.29039168357849,-1.85066688060760
391,681109409,118.86291503906250,70.05155944824219,122.99106597900391,-9.10388183593750,2.81090998649597,-2.13907694816589,-0.40384680032730,-3.13076376914978,-1.78355753421783
392,681117742,118.83348846435547,70.07780456542969,122.95992279052734,-9.09123611450195,2.87512898445129,-2.08898830413818,0.56341069936752,-3.39315605163574,-1.77894699573517
393,681126075,118.76453399658203,70.11195373535156,122.88672637939453,-9.03397655487061,2.90614986419678,-2.08604383468628,0.71409928798676,-3.71899485588074,-1.80871093273163
394,681134408,118.72707366943359,70.13983917236328,122.84782409667969,-8.93517112731934,2.89112663269043,-2.03638052940369,0.15686157345772,-3.69227910041809,-1.84572327136993
395,681142741,118.65473175048828,70.17272949218750,122.78067016601562,-8.90967178344727,2.89586734771729,-2.02822995185852,-0.37162411212921,-3.41992282867432,-1.80561137199402
396,681151074,118.60956573486328,70.20214080810547,122.73445892333984,-8.92731189727783,2.87041258811951,-1.99494481086731,-0.49260017275810,-3.88879179954529,-1.97020864486694
397,681159407,118.51930236816406,70.24116516113281,122.64714050292969,-8.93991756439209,2.89336895942688,-2.13402605056763,-0.24611440300941,-4.48014783859253,-2.07220458984375
398,681167740,118.45529174804688,70.27612304687500,122.58304595947266,-8.95677757263184,2.88295745849609,-2.17438578605652,-0.00221563130617,-5.08215856552124,-2.10481119155884
399,681176073,118.34936523437500,70.31805419921875,122.47078704833984,-8.94760131835938,2.86550092697144,-2.05792903900146,0.69586187601089,-5.52003383636475,-1.92302691936493
400,681184406,118.28147125244141,70.35250854492188,122.39118194580078,-8.96216011047363,2.84270071983337,-1.93499839305878,1.21657371520996,-5.60958099365234,-1.78327548503876
401,681192739,118.18784332275391,70.39134979248047,122.27990722656250,-8.95334815979004,2.78702139854431,-1.93684649467468,2.06665873527527,-5.29352712631226,-1.64111673831940
402,681201072,118.14698791503906,70.41929626464844,122.21772766113281,-8.98806667327881,2.72588229179382,-1.98013675212860,2.44864416122437,-4.62105178833008,-1.45403051376343
403,681209405,118.07589721679688,70.45225524902344,122.12196350097656,-8.97131729125977,2.71130776405334,-1.93861043453217,3.01704978942871,-4.39674758911133,-1.33243966102600
404,681217738,118.04912567138672,70.47853088378906,122.06671142578125,-8.98308086395264,2.76394057273865,-1.96613132953644,3.22629213333130,-4.24869728088379,-1.41934871673584
405,681226071,117.99023437500000,70.51011657714844,121.98433685302734,-9.01735210418701,2.78290367126465,-2.00196075439453,2.97347927093506,-3.83776760101318,-1.44998323917389
406,681234404,117.97798156738281,70.53338623046875,121.95048522949219,-9.01665019989014,2.81425881385803,-1.92072558403015,2.75691127777100,-3.40345335006714,-1.47915804386139
407,681242737,117.93177032470703,70.56306457519531,121.88834381103516,-9.01103591918945,2.85597777366638,-1.90872466564178,2.20492434501648,-3.01037669181824,-1.63650608062744
408,681251070,117.92240142822266,70.58655548095703,121.87010955810547,-9.00476360321045,2.86770462989807,-1.92141044139862,0.90418261289597,-2.74867653846741,-1.85281860828400
409,681259403,117.87329101562500,70.61537933349609,121.83072662353516,-9.01552867889404,2.82592153549194,-1.98845934867859,-0.71721142530441,-2.15393948554993,-1.97558760643005
410,681267736,117.86691284179688,70.63529968261719,121.84237670898438,-9.03304576873779,2.82296395301819,-1.96647906303406,-1.40062487125397,-1.73089480400085,-1.93188977241516
411,681276069,117.81889343261719,70.66131591796875,121.81321716308594,-9.05261898040771,2.84667539596558,-1.82581377029419,-1.74295890331268,-1.63904213905334,-1.87108147144318
412,681284402,117.81445312500000,70.68132781982422,121.82801055908203,-9.07224464416504,2.86627316474915,-1.80910408496857,-1.74480319023132,-1.58043670654297,-2.03370618820190
413,681292735,117.76604461669922,70.71350860595703,121.79298400878906,-9.09286975860596,2.83883309364319,-1.78378498554230,-1.12706494331360,-2.18959450721741,-2.42429780960083
414,681301068,117.74739837646484,70.74160766601562,121.77838134765625,-9.11885547637939,2.78874421119690,-1.79399597644806,-0.64935922622681,-2.91055798530579,-2.43093156814575
415,681309401,117.68592071533203,70.77818298339844,121.71903991699219,-9.10872840881348,2.81418299674988,-1.72630119323730,0.06308785080910,-3.28572988510132,-2.45132064819336
416,681317734,117.66797637939453,70.81015777587891,121.69080352783203,-9.12418270111084,2.80313825607300,-1.71730279922485,1.12344038486481,-3.63487768173218,-2.55846500396729
417,681326067,117.59935760498047,70.85510253906250,121.60446929931641,-9.13740444183350,2.81513404846191,-1.75426113605499,2.26652693748474,-4.68326854705811,-2.85571861267090
418,681334400,117.57120513916016,70.89473724365234,121.55690765380859,-9.13522052764893,2.85900115966797,-1.80381643772125,2.52932906150818,-4.85998106002808,-2.97802639007568
419,681342733,117.51007080078125,70.94029998779297,121.47766113281250,-9.09412097930908,2.82863736152649,-1.70164155960083,2.36219596862793,-4.45881080627441,-3.06772708892822
420,681351066,117.50253295898438,70.97556304931641,121.46013641357422,-9.08239078521729,2.83136534690857,-1.76105499267578,1.36623787879944,-3.49843072891235,-3.08765506744385
421,681359399,117.46551513671875,71.01460266113281,121.42396545410156,-9.08569335937500,2.85046935081482,-1.67002058029175,0.37122705578804,-2.59112286567688,-3.15904164314270
422,681367732,117.47811126708984,71.04411315917969,121.44136810302734,-9.09306335449219,2.82265734672546,-1.66383802890778,-0.26353204250336,-1.94059848785400,-3.12582039833069
423,681376065,117.45622253417969,71.07885742187500,121.43405914306641,-9.10835742950439,2.80850529670715,-1.67895364761353,-1.08848953247070,-1.35608160495758,-3.22320556640625
424,681384398,117.46480560302734,71.10979461669922,121.45478057861328,-9.12346935272217,2.78596210479736,-1.66380572319031,-1.12163436412811,-1.89585006237030,-3.34991884231567
425,681392731,117.41296386718750,71.15426635742188,121.40940093994141,-9.15453433990479,2.80090999603271,-1.72109198570251,-0.36148092150688,-3.20765805244446,-3.58065271377563
426,681401064,117.38639068603516,71.19641876220703,121.38223266601562,-9.14280414581299,2.77416658401489,-1.78104352951050,0.16992484033108,-4.17989730834961,-3.67916512489319
427,681409397,117.32006072998047,71.24623870849609,121.31202697753906,-9.10161972045898,2.77506613731384,-1.71146368980408,0.72101515531540,-4.34254789352417,-3.71653604507446
428,681417730,117.30903625488281,71.28678131103516,121.29586791992188,-9.12324333190918,2.78380370140076,-1.75584363937378,0.75244379043579,-3.69932317733765,-3.71663808822632
429,681426063,117.27069091796875,71.33180236816406,121.25845336914062,-9.13751316070557,2.78577995300293,-1.77072310447693,0.35665264725685,-2.94936418533325,-3.79747724533081
430,681434396,117.28230285644531,71.36637115478516,121.27267456054688,-9.14062786102295,2.76177287101746,-1.65032660961151,0.13975127041340,-2.36733174324036,-3.59645652770996
431,681442729,117.26107025146484,71.40405273437500,121.25401306152344,-9.14492893218994,2.73116922378540,-1.69440817832947,0.27924638986588,-1.90704369544983,-3.34840774536133
432,681451062,117.28730010986328,71.43138885498047,121.28489685058594,-9.17729854583740,2.75049233436584,-1.74176788330078,-0.10351993888617,-1.37813556194305,-3.12466788291931
433,681459395,117.27855682373047,71.46250152587891,121.28665161132812,-9.14246273040771,2.78868079185486,-1.69110202789307,-0.54559600353241,-0.85240328311920,-3.00325608253479
434,681467728,117.31736755371094,71.48492431640625,121.33981323242188,-9.12380123138428,2.79795718193054,-1.66358423233032,-1.07160997390747,-0.37707996368408,-2.98530077934265
435,681476061,117.31235504150391,71.51293182373047,121.35774993896484,-9.11492443084717,2.79362201690674,-1.67687237262726,-1.93824183940887,-0.14404165744781,-2.95546054840088
436,681484394,117.35054779052734,71.53207397460938,121.42329406738281,-9.10709762573242,2.77442979812622,-1.67284524440765,-3.05871129035950,0.36000809073448,-2.92969250679016
437,681492727,117.35194396972656,71.55490112304688,121.46492767333984,-9.14332485198975,2.74546527862549,-1.56795406341553,-3.87137389183044,0.93732726573944,-2.81509399414062
438,681501060,117.39361572265625,71.56743621826172,121.54705810546875,-9.17273330688477,2.71369791030884,-1.65898811817169,-4.16960048675537,1.17548847198486,-2.46387171745300
439,681509393,117.38120269775391,71.58946228027344,121.57959747314453,-9.21346378326416,2.68576169013977,-1.61704778671265,-4.49582290649414,0.66702026128769,-2.56809592247009
440,681517726,117.40140533447266,71.60639190673828,121.64244842529297,-9.22308063507080,2.68134641647339,-1.53378415107727,-4.57279443740845,0.28851872682571,-2.60805416107178
441,681526059,117.37703704833984,71.63310241699219,121.66572570800781,-9.20385074615479,2.70298337936401,-1.50277245044708,-4.87668180465698,0.09374810010195,-2.89954423904419
442,681534392,117.38433074951172,71.65480041503906,121.72847747802734,-9.18545055389404,2.71314144134521,-1.61846876144409,-6.07522249221802,0.01631626673043,-3.11239838600159
443,681542725,117.35951995849609,71.67965698242188,121.76271057128906,-9.15628337860107,2.71409034729004,-1.60919427871704,-6.18062496185303,0.55523973703384,-2.89447236061096
444,681551058,117.36920928955078,71.69750213623047,121.82892608642578,-9.16656494140625,2.70176529884338,-1.68610572814941,-6.33100605010986,0.39786589145660,-2.77728724479675
445,681559391,117.32915496826172,71.72580718994141,121.85460662841797,-9.14790153503418,2.76675271987915,-1.68060946464539,-7.03947019577026,0.07210407406092,-3.11731648445129
446,681567724,117.31726837158203,71.75348663330078,121.90536499023438,-9.12564277648926,2.84935235977173,-1.61376583576202,-7.57301521301270,-0.54536551237106,-3.60019564628601
447,681576057,117.25746154785156,71.79177093505859,121.91417694091797,-9.18104362487793,2.84717845916748,-1.72447049617767,-7.48997354507446,-1.03982269763947,-3.88776683807373
448,681584390,117.23070526123047,71.82479095458984,121.95568084716797,-9.25742816925049,2.73979139328003,-1.60325372219086,-7.77047586441040,-1.30049884319305,-3.96297049522400
449,681592723,117.16172027587891,71.86575317382812,121.94852447509766,-9.25111103057861,2.61976933479309,-1.46899521350861,-6.77398014068604,-1.71637165546417,-3.90523672103882
450,681601056,117.12769317626953,71.90189361572266,121.96461486816406,-9.27735328674316,2.51739931106567,-1.47030007839203,-6.32334852218628,-2.14725446701050,-3.94762825965881
451,681609389,117.04096221923828,71.94861602783203,121.92335510253906,-9.21861076354980,2.57849359512329,-1.53155422210693,-5.01405000686646,-3.15258717536926,-3.94352841377258
452,681617722,117.00016021728516,71.98904418945312,121.92464447021484,-9.14173698425293,2.64900374412537,-1.78626191616058,-5.04268789291382,-2.95873904228210,-4.08799409866333
453,681626055,116.91951751708984,72.03546142578125,121.90148925781250,-9.08120918273926,2.73968243598938,-1.75216209888458,-6.35050010681152,-2.52695989608765,-4.22684907913208
454,681634388,116.88177490234375,72.07265472412109,121.92929840087891,-9.04606246948242,2.72396516799927,-1.70456373691559,-7.92825984954834,-1.84428918361664,-4.22474861145020
455,681642721,116.81507110595703,72.11110687255859,121.94499969482422,-9.08243751525879,2.67902469635010,-1.63345468044281,-9.11532402038574,-0.80896145105362,-4.03445959091187
456,681651054,116.80283355712891,72.13854980468750,122.01601409912109,-9.21869468688965,2.59462141990662,-1.58960032463074,-9.79423236846924,0.09118669480085,-3.88784480094910
457,681659387,116.74662017822266,72.17247009277344,122.04575347900391,-9.32035350799561,2.54128098487854,-1.55714976787567,-9.46280860900879,-0.10185501724482,-3.77857375144958
458,681667720,116.70972442626953,72.20049285888672,122.07941436767578,-9.28240203857422,2.50396561622620,-1.45281565189362,-8.54661273956299,-1.14824783802032,-3.35972976684570
459,681676053,116.62696838378906,72.23244476318359,122.06588745117188,-9.19101619720459,2.46585750579834,-1.52686035633087,-7.70636272430420,-1.40792489051819,-2.85387372970581
460,681684386,116.58784484863281,72.25513458251953,122.08464813232422,-9.17791938781738,2.42294311523438,-1.49589896202087,-7.02364158630371,-1.36489307880402,-2.50749278068542
461,681692719,116.51133728027344,72.28295898437500,122.06713104248047,-9.24387454986572,2.43323254585266,-1.39300656318665,-6.50561809539795,-1.31958127021790,-2.35611248016357
462,681701052,116.48327636718750,72.30156707763672,122.08403015136719,-9.27633094787598,2.45579433441162,-1.37322318553925,-5.27864551544189,-1.24704182147980,-2.00701642036438
463,681709385,116.43001556396484,72.32582855224609,122.05873107910156,-9.18158721923828,2.49694108963013,-1.43097269535065,-2.82938671112061,-1.37821233272552,-1.85048758983612
464,681717718,116.43299102783203,72.34254455566406,122.08174896240234,-8.98993396759033,2.59658670425415,-1.76455116271973,-2.36484718322754,-0.90224856138229,-1.87307953834534
465,681726051,116.40696716308594,72.36141204833984,122.10191345214844,-8.90106201171875,2.56349539756775,-1.69912779331207,-4.75906085968018,0.38972058892250,-2.01047420501709
466,681734384,116.43497467041016,72.36711120605469,122.17617034912109,-8.98509216308594,2.46244096755981,-1.42205309867859,-5.38064146041870,1.39415705204010,-1.54708695411682
467,681742717,116.43338775634766,72.37380218505859,122.23165893554688,-9.26105022430420,2.34873867034912,-1.46013450622559,-5.86764526367188,2.18553447723389,-1.27214384078979
468,681751050,116.46127319335938,72.37255096435547,122.29841613769531,-9.55974292755127,2.36631464958191,-1.52849268913269,-4.76584815979004,1.58557224273682,-0.70053642988205
469,681759383,116.43004608154297,72.37831115722656,122.29100036621094,-9.61664772033691,2.40920376777649,-1.48001885414124,-2.23590493202209,0.18703514337540,-0.15441541373730
470,681767716,116.43102264404297,72.38021850585938,122.28370666503906,-9.45796108245850,2.43384075164795,-1.41983938217163,0.57219636440277,-1.01377296447754,0.18355160951614
471,681776049,116.40000152587891,72.38906097412109,122.23808288574219,-9.29347229003906,2.39935088157654,-1.36660277843475,2.15423417091370,-1.22327184677124,0.13368070125580
472,681784382,116.41551971435547,72.39276123046875,122.22274017333984,-9.28052711486816,2.42198157310486,-1.24828100204468,2.77335596084595,-1.22232413291931,0.10550503432751
473,681792715,116.38591766357422,72.40275573730469,122.16735839843750,-9.37252426147461,2.44873309135437,-1.22455513477325,3.43937683105469,-1.60264420509338,0.16295774281025
474,681801048,116.38523864746094,72.41224670410156,122.12190246582031,-9.48966979980469,2.44436407089233,-1.27390933036804,3.91252326965332,-2.38636279106140,-0.07065686583519
475,681809381,116.34185028076172,72.43015289306641,122.03488159179688,-9.49398326873779,2.45637416839600,-1.30595922470093,5.39948129653931,-3.05607295036316,-0.18417917191982
476,681817714,116.32133483886719,72.45053100585938,121.94847869873047,-9.33878231048584,2.53677487373352,-1.42044854164124,7.21637582778931,-4.52015686035156,-0.44093629717827
477,681826047,116.25307464599609,72.47868347167969,121.81967926025391,-9.18953800201416,2.54566812515259,-1.38204479217529,7.19688320159912,-4.94550657272339,-0.62169593572617
478,681834380,116.24076080322266,72.49929809570312,121.74050140380859,-9.18749618530273,2.54567837715149,-1.23022317886353,7.21430015563965,-4.24198532104492,-0.58801311254501
479,681842713,116.20391082763672,72.52006530761719,121.63758087158203,-9.32364082336426,2.49831247329712,-1.36057484149933,8.00132465362549,-3.71069574356079,-0.25310707092285
480,681851046,116.21109008789062,72.53076934814453,121.57331085205078,-9.53837394714355,2.52348113059998,-1.48490607738495,8.05534458160400,-3.25243163108826,0.26700279116631
481,681859379,116.18755340576172,72.54004669189453,121.48415374755859,-9.55804347991943,2.54652881622314,-1.49661958217621,8.02465820312500,-2.65198230743408,0.76437991857529
482,681867712,116.18957519531250,72.54309082031250,121.42218780517578,-9.34876251220703,2.56534647941589,-1.50795209407806,7.42941045761108,-2.83030939102173,1.09052622318268
483,681876045,116.13864135742188,72.55416870117188,121.30856323242188,-9.14304351806641,2.49922537803650,-1.43154716491699,7.53652715682983,-3.53654456138611,0.95820289850235
484,681884378,116.10022735595703,72.56863403320312,121.19702148437500,-9.10708904266357,2.49613428115845,-1.34288215637207,8.25930976867676,-5.02665233612061,0.64706671237946
485,681892711,116.00260925292969,72.59293365478516,121.02909851074219,-9.21886348724365,2.48464894294739,-1.39879119396210,8.15032291412354,-5.98365211486816,0.37870651483536
486,681901044,115.92717742919922,72.61677551269531,120.87851715087891,-9.35659885406494,2.51020574569702,-1.31956779956818,7.98465013504028,-6.68348455429077,0.21400694549084
487,681909377,115.80786895751953,72.64616394042969,120.67311859130859,-9.36363315582275,2.55853033065796,-1.21772921085358,9.84414005279541,-7.44986248016357,0.37906509637833
488,681917710,115.72174072265625,72.67531585693359,120.48147583007812,-9.22892761230469,2.62231492996216,-1.42903900146484,11.27351951599121,-8.20517730712891,0.26149579882622
489,681926043,115.59863281250000,72.71015930175781,120.26406097412109,-9.07986450195312,2.65011739730835,-1.45836937427521,10.76958274841309,-8.10064411163330,-0.06289575994015
490,681934376,115.50930786132812,72.74311065673828,120.07625579833984,-9.07921695709229,2.67784214019775,-1.41281676292419,10.90531444549561,-8.36477851867676,-0.20730884373188
491,681942709,115.40787506103516,72.77480316162109,119.89490509033203,-9.15607929229736,2.66610765457153,-1.57345271110535,9.24835205078125,-6.75333452224731,-0.31296753883362
492,681951042,115.36360168457031,72.79811859130859,119.78228759765625,-9.24687290191650,2.66112995147705,-1.52321052551270,7.58376169204712,-5.39544725418091,-0.35279771685600
493,681959375,115.31246185302734,72.82011413574219,119.67608642578125,-9.26637554168701,2.57225441932678,-1.59496998786926,6.66951274871826,-3.83351659774780,-0.42856466770172
494,681967708,115.30449676513672,72.83814239501953,119.60614776611328,-9.22032546997070,2.51688814163208,-1.43774020671844,7.39165306091309,-3.84422254562378,-0.40049135684967
495,681976041,115.25695800781250,72.86375427246094,119.48433685302734,-9.13633060455322,2.49919080734253,-1.40000343322754,8.89126491546631,-4.50914287567139,-0.59198343753815
496,681984374,115.24944305419922,72.88983154296875,119.39084625244141,-9.01693439483643,2.47554755210876,-1.45985949039459,9.87651729583740,-4.94020509719849,-0.96390211582184
497,681992707,115.22634124755859,72.91938781738281,119.28617858886719,-9.04269409179688,2.50638675689697,-1.47001504898071,9.86406898498535,-4.15868902206421,-1.28835773468018
498,682001040,115.26705169677734,72.94206237792969,119.24798583984375,-9.10624027252197,2.56041598320007,-1.46581614017487,9.61581420898438,-3.06178522109985,-1.38190090656281
499,682009373,115.28267669677734,72.96762847900391,119.18941497802734,-9.19236183166504,2.62056350708008,-1.46279418468475,9.22453212738037,-2.48228836059570,-1.54780435562134
500,682017706,115.33726501464844,72.99147033691406,119.17279815673828,-9.25412750244141,2.64114546775818,-1.40813517570496,8.73983383178711,-2.42342710494995,-1.84595406055450
501,682026039,115.33544921875000,73.02605438232422,119.09912872314453,-9.25076198577881,2.67911171913147,-1.42985200881958,8.86203861236572,-3.41848826408386,-2.29702043533325
502,682034372,115.36973571777344,73.06076049804688,119.05300140380859,-9.23640918731689,2.66618657112122,-1.43183410167694,9.91650104522705,-3.97370338439941,-2.56850600242615
503,682042705,115.36613464355469,73.10012054443359,118.96711730957031,-9.23550224304199,2.64683222770691,-1.47524857521057,10.05305099487305,-4.04255437850952,-2.63182449340820
504,682051038,115.40859985351562,73.13100433349609,118.93172454833984,-9.30084037780762,2.61584830284119,-1.42819333076477,10.09902763366699,-3.54942846298218,-2.27491545677185
505,682059371,115.43013000488281,73.16109466552734,118.86790466308594,-9.29292297363281,2.55218911170959,-1.41993355751038,10.53884983062744,-2.87326407432556,-1.95719671249390
506,682067704,115.46517181396484,73.18730926513672,118.81314849853516,-9.31708240509033,2.51473665237427,-1.37041544914246,11.08694267272949,-3.81848096847534,-1.51578652858734
507,682076037,115.43968963623047,73.22183990478516,118.69140625000000,-9.31155586242676,2.48996496200562,-1.60899019241333,11.55524921417236,-4.91372060775757,-1.57923316955566
508,682084370,115.46299743652344,73.25208282470703,118.63052368164062,-9.17160797119141,2.49948287010193,-1.67897057533264,10.99173736572266,-4.36309146881104,-1.79936194419861
509,682092703,115.45845031738281,73.28437042236328,118.54280090332031,-9.08152198791504,2.53026103973389,-1.73673582077026,10.16529083251953,-3.72283744812012,-1.84129202365875
510,682101036,115.48670959472656,73.31279754638672,118.50155639648438,-9.12220191955566,2.52977728843689,-1.72654902935028,9.37680816650391,-3.68761706352234,-1.88119888305664
511,682109369,115.48358154296875,73.34521484375000,118.42171478271484,-9.11836814880371,2.62310242652893,-1.70623123645782,9.43543910980225,-3.47922039031982,-1.97251379489899
512,682117702,115.51796722412109,73.37218475341797,118.38871002197266,-9.10733890533447,2.65259337425232,-1.52628171443939,8.27490997314453,-3.14490342140198,-1.95560872554779
513,682126035,115.51499176025391,73.40100860595703,118.33115386962891,-9.11766433715820,2.59157085418701,-1.50715565681458,6.89274072647095,-2.60177922248840,-1.91803240776062
514,682134368,115.54672241210938,73.42347717285156,118.32437896728516,-9.13289070129395,2.57701754570007,-1.69692122936249,5.27161502838135,-2.20660233497620,-1.81818830966949
515,682142701,115.54721069335938,73.44640350341797,118.28570556640625,-9.14004230499268,2.56391000747681,-1.73941659927368,5.13954734802246,-1.71170961856842,-1.55628252029419
516,682151034,115.59274291992188,73.46423339843750,118.29222869873047,-9.14247989654541,2.48656344413757,-1.70796906948090,5.22151327133179,-1.53422880172729,-1.53896737098694
517,682159367,115.60295104980469,73.48271942138672,118.26367187500000,-9.16209220886230,2.46253705024719,-1.61656117439270,5.14208316802979,-1.17452788352966,-1.22867631912231
518,682167700,115.65876007080078,73.49330902099609,118.28851318359375,-9.12071800231934,2.46923613548279,-1.55990099906921,4.46223068237305,-0.64316058158875,-1.02145731449127
519,682176033,115.69280242919922,73.50447082519531,118.29816436767578,-9.03802967071533,2.44415473937988,-1.49989175796509,3.60679149627686,0.37791240215302,-0.99540758132935
520,682184366,115.79136657714844,73.50567626953125,118.37843322753906,-9.04281902313232,2.46492075920105,-1.47185230255127,2.65199565887451,1.65954637527466,-0.88285869359970
521,682192699,115.86958312988281,73.50849914550781,118.44486999511719,-9.04163074493408,2.44323396682739,-1.38714361190796,2.37628388404846,2.54451823234558,-0.93710964918137
522,682201032,115.99948120117188,73.50495910644531,118.57099151611328,-9.08504199981689,2.40026497840881,-1.45342814922333,1.50493860244751,3.21466302871704,-1.01587331295013
523,682209365,116.10164642333984,73.50154113769531,118.67426300048828,-9.14014148712158,2.42003059387207,-1.49503254890442,1.00671637058258,3.99559020996094,-0.82097470760345
524,682217698,116.24160003662109,73.49313354492188,118.81936645507812,-9.18211269378662,2.46752858161926,-1.47847819328308,0.49253609776497,4.05870342254639,-0.80412048101425
525,682226031,116.33448791503906,73.49012756347656,118.91600036621094,-9.20766735076904,2.52663540840149,-1.47054111957550,0.66059106588364,3.76613783836365,-0.77850621938705
526,682234364,116.45838928222656,73.48482513427734,119.04171752929688,-9.21357250213623,2.54456162452698,-1.50599670410156,0.69647669792175,3.32577800750732,-0.88721317052841
527,682242697,116.52487182617188,73.48735809326172,119.11103820800781,-9.25391578674316,2.54006099700928,-1.46360015869141,0.62995648384094,2.62891697883606,-0.97304636240005
528,682251030,116.63336181640625,73.48559570312500,119.21962738037109,-9.25811672210693,2.50304913520813,-1.42449522018433,0.93812125921249,2.58099246025085,-1.01384973526001
529,682259363,116.68815612792969,73.48969268798828,119.27604675292969,-9.29592990875244,2.48436641693115,-1.47875070571899,0.71694236993790,2.14234876632690,-0.94855904579163
530,682267696,116.77366638183594,73.48890686035156,119.36605072021484,-9.30425548553467,2.45752668380737,-1.51594936847687,0.05120285227895,2.02303791046143,-0.87161397933960
531,682276029,116.81705474853516,73.49166107177734,119.41867065429688,-9.29391670227051,2.42840290069580,-1.45949411392212,-0.22193452715874,2.09416842460632,-0.75086849927902
532,682284362,116.90653991699219,73.48735809326172,119.51685333251953,-9.27933311462402,2.43838405609131,-1.51071453094482,-0.52313232421875,2.48278784751892,-0.65012770891190
533,682292695,116.94558715820312,73.48839569091797,119.56935119628906,-9.26042747497559,2.49311590194702,-1.54689550399780,-0.72763633728027,2.17849063873291,-0.56516528129578
534,682301028,117.02223205566406,73.48471069335938,119.66412353515625,-9.31517887115479,2.54540014266968,-1.55761182308197,-1.27921330928802,2.25179886817932,-0.61813557147980
535,682309361,117.06217956542969,73.48374176025391,119.72965240478516,-9.35584259033203,2.52680611610413,-1.52420294284821,-2.11964178085327,2.67924880981445,-0.55763471126556
536,682317694,117.13232421875000,73.47880554199219,119.82912445068359,-9.38317203521729,2.53484845161438,-1.37085127830505,-2.80799841880798,2.50906753540039,-0.59554368257523
537,682326027,117.14140319824219,73.48197937011719,119.86733245849609,-9.36592388153076,2.52630424499512,-1.19119787216187,-2.67956948280334,1.61858916282654,-0.57825416326523
538,682334360,117.18412017822266,73.48085021972656,119.93742370605469,-9.34075069427490,2.52324843406677,-1.25570905208588,-2.61381769180298,1.37935233116150,-0.54044759273529
539,682342693,117.17768859863281,73.48648834228516,119.96382141113281,-9.35659027099609,2.53938221931458,-1.31076347827911,-3.18358063697815,1.12528467178345,-0.65353447198868
540,682351026,117.18674468994141,73.49173736572266,120.00666046142578,-9.37406444549561,2.57869172096252,-1.32394385337830,-3.50073623657227,0.23114286363125,-0.81011426448822
541,682359359,117.14103698730469,73.50353240966797,120.00452423095703,-9.30819416046143,2.51181173324585,-1.41570746898651,-4.61641502380371,-0.08564119786024,-0.87133222818375
542,682367692,117.12736511230469,73.51200866699219,120.03822326660156,-9.25886440277100,2.51520562171936,-1.32598328590393,-5.41224956512451,-0.15095749497414,-1.03674888610840
543,682376025,117.05781555175781,73.52839660644531,120.02094268798828,-9.30487537384033,2.47530817985535,-1.18028700351715,-5.73593664169312,-0.79702538251877,-1.12675738334656
544,682384358,117.01275634765625,73.54341888427734,120.01972961425781,-9.37562370300293,2.40041923522949,-1.23658931255341,-4.99783706665039,-1.58643043041229,-1.19268846511841
545,682392691,116.92872619628906,73.56396484375000,119.97863769531250,-9.40240001678467,2.42055249214172,-1.30772256851196,-4.73400974273682,-1.74134540557861,-1.20587968826294
546,682401024,116.88143920898438,73.57701873779297,119.97049713134766,-9.38676166534424,2.36823844909668,-1.27643263339996,-4.48475790023804,-1.66194117069244,-0.89005619287491
547,682409357,116.80339050292969,73.59090423583984,119.92839813232422,-9.31621837615967,2.33026409149170,-1.17583823204041,-3.89634752273560,-1.41176676750183,-0.48647835850716
548,682417690,116.77615356445312,73.59849548339844,119.92940521240234,-9.26124668121338,2.34118866920471,-1.17628133296967,-3.05814743041992,-1.07657897472382,-0.43005019426346
549,682426023,116.71504974365234,73.61147308349609,119.89646911621094,-9.27698707580566,2.35269927978516,-1.33380436897278,-2.92129063606262,-1.08277773857117,-0.53191804885864
550,682434356,116.69576263427734,73.62326049804688,119.89273071289062,-9.24817562103271,2.41484618186951,-1.48283338546753,-2.41856050491333,-1.21289801597595,-0.90217185020447
551,682442689,116.64445495605469,73.64225769042969,119.86592864990234,-9.22132968902588,2.47872495651245,-1.51319408416748,-2.45275521278381,-1.22237527370453,-1.27598583698273
552,682451022,116.63432312011719,73.65820312500000,119.87574768066406,-9.18886852264404,2.47200846672058,-1.34556555747986,-2.13962101936340,-1.20165336132050,-1.45956313610077
553,682459355,116.59544372558594,73.67759704589844,119.85950469970703,-9.20266342163086,2.40034508705139,-1.32801806926727,-2.17827296257019,-0.92440497875214,-1.48064374923706
554,682467688,116.58653259277344,73.68962097167969,119.87270355224609,-9.29512214660645,2.30408787727356,-1.35060203075409,-2.69452834129333,-0.81836205720901,-1.13618361949921
555,682476021,116.54522705078125,73.70075988769531,119.86570739746094,-9.40115451812744,2.22923493385315,-1.56857705116272,-3.53626275062561,-0.20362035930157,-0.73465466499329
556,682484354,116.53070831298828,73.70535278320312,119.88536834716797,-9.45657825469971,2.21473240852356,-1.57707834243774,-3.98876380920410,-0.23999257385731,-0.41055771708488
557,682492687,116.46673583984375,73.71479797363281,119.85013580322266,-9.40053367614746,2.16918325424194,-1.46162092685699,-3.00568938255310,-0.96177589893341,-0.12795591354370
558,682501020,116.42398834228516,73.72282409667969,119.82324981689453,-9.35388565063477,2.14907908439636,-1.32340800762177,-2.38054871559143,-1.74641680717468,-0.11673687398434
559,682509353,116.34352111816406,73.73854827880859,119.75363922119141,-9.35210132598877,2.15166139602661,-1.22022342681885,-1.02591407299042,-2.33221435546875,-0.29301404953003
560,682517686,116.27635192871094,73.76025390625000,119.67850494384766,-9.35592937469482,2.17880940437317,-1.29202914237976,0.46441161632538,-3.97521328926086,-0.82348477840424
561,682526019,116.15642547607422,73.79376983642578,119.55078125000000,-9.34032058715820,2.24749112129211,-1.46950566768646,0.93502205610275,-5.01963520050049,-1.36097395420074
562,682534352,116.06673431396484,73.82849121093750,119.45267486572266,-9.33443927764893,2.28638386726379,-1.35927116870880,0.82037281990051,-5.41890954971313,-1.82628202438354
563,682542685,115.92774963378906,73.87155151367188,119.30238342285156,-9.33392906188965,2.28720331192017,-1.30411565303802,1.25169074535370,-6.17685985565186,-2.08690690994263
564,682551018,115.81466674804688,73.91295623779297,119.17226409912109,-9.37119388580322,2.29906988143921,-1.12754726409912,1.65265619754791,-6.69413995742798,-2.12271618843079
565,682559351,115.66950225830078,73.96118927001953,119.00249481201172,-9.40994167327881,2.24253320693970,-1.09891676902771,2.76339221000671,-6.99613237380981,-2.40800738334656
566,682567684,115.56075286865234,74.00867462158203,118.87219238281250,-9.43210411071777,2.25781059265137,-1.07595992088318,2.61462473869324,-7.05814456939697,-2.75864076614380
567,682576017,115.40958404541016,74.06008911132812,118.69620513916016,-9.40672492980957,2.24957180023193,-1.01493668556213,2.76838636398315,-7.30601167678833,-2.71122813224792
568,682584350,115.29551696777344,74.10521697998047,118.55278015136719,-9.39121627807617,2.20802664756775,-1.07793545722961,2.75209593772888,-7.09182739257812,-2.41551232337952
569,682592683,115.14604949951172,74.15393829345703,118.37297058105469,-9.38061332702637,2.13298010826111,-0.86336565017700,3.42462325096130,-7.23854398727417,-2.41328334808350
570,682601016,115.02888488769531,74.20645904541016,118.20284271240234,-9.30680179595947,2.15123629570007,-0.73399412631989,5.79401731491089,-8.27248954772949,-2.85036516189575
571,682609349,114.89498138427734,74.26931762695312,118.00473022460938,-9.26501750946045,2.21247577667236,-0.71172410249710,7.41491127014160,-8.45404243469238,-3.75890207290649
572,682617682,114.82445526123047,74.33320617675781,117.86698913574219,-9.20336914062500,2.28138279914856,-0.89330577850342,7.88775205612183,-7.83400058746338,-4.53588485717773
573,682626015,114.76313781738281,74.39809417724609,117.74272155761719,-9.24136352539062,2.28994941711426,-1.19631898403168,7.60435438156128,-6.32918834686279,-5.02647352218628
574,682634348,114.76985931396484,74.45580291748047,117.69361114501953,-9.24134349822998,2.25938677787781,-1.39544105529785,7.08663892745972,-4.89643049240112,-5.05803060531616
575,682642681,114.76171112060547,74.51094055175781,117.63084411621094,-9.23128795623779,2.20998311042786,-1.42117106914520,6.88295555114746,-4.01560831069946,-4.80263185501099
576,682651014,114.79378509521484,74.55871582031250,117.60844421386719,-9.19644260406494,2.14040803909302,-1.44161558151245,6.78723526000977,-3.56256890296936,-4.37828016281128
577,682659347,114.79602813720703,74.60692596435547,117.55786895751953,-9.18266105651855,2.10648083686829,-1.38968789577484,6.72122669219971,-3.30796360969543,-4.21393966674805
578,682667680,114.83097076416016,74.65235900878906,117.54314422607422,-9.23669052124023,2.11009860038757,-1.43153357505798,6.66820430755615,-3.32612323760986,-4.16022539138794
579,682676013,114.82531738281250,74.70116424560547,117.48355865478516,-9.28815460205078,2.16097879409790,-1.36550855636597,6.82068729400635,-3.59525227546692,-4.16232633590698
580,682684346,114.85621643066406,74.74991607666016,117.45544433593750,-9.30837249755859,2.21033000946045,-1.22120416164398,7.43076705932617,-3.81945466995239,-4.36416673660278
581,682692679,114.85315704345703,74.80082702636719,117.38410949707031,-9.31312179565430,2.23266053199768,-1.13756096363068,8.49567985534668,-4.03059244155884,-4.23870849609375
582,682701012,114.89080810546875,74.85093688964844,117.34223937988281,-9.35186862945557,2.23350977897644,-1.14045858383179,9.57690715789795,-4.22369813919067,-4.33010005950928
583,682709345,114.87303161621094,74.90671539306641,117.23677062988281,-9.39053916931152,2.26153492927551,-0.99091154336929,10.68769359588623,-5.23955917358398,-4.32320976257324
584,682717678,114.88124084472656,74.96039581298828,117.15026092529297,-9.40305519104004,2.28870487213135,-1.15461230278015,11.34290599822998,-5.65968370437622,-4.12825965881348
585,682726011,114.86471557617188,75.01509857177734,117.03940582275391,-9.39599800109863,2.28014159202576,-1.16232633590698,11.46818542480469,-5.31588983535767,-4.14570283889771
586,682734344,114.88867187500000,75.06893920898438,116.96665954589844,-9.45892620086670,2.29344177246094,-1.00045716762543,11.61293220520020,-5.24857521057129,-4.33289146423340
587,682742677,114.87353515625000,75.12480926513672,116.85149383544922,-9.47886943817139,2.28068137168884,-0.94509446620941,12.14132976531982,-5.47731113433838,-4.22702884674072
588,682751010,114.90804290771484,75.17728424072266,116.78033447265625,-9.46685028076172,2.28317618370056,-0.88934874534607,13.05606269836426,-5.19624471664429,-4.17989730834961
589,682759343,114.92939758300781,75.23139190673828,116.68169403076172,-9.41718101501465,2.28045988082886,-0.94466114044189,14.60759639739990,-4.91133785247803,-4.25351333618164
590,682767676,114.99736785888672,75.27938842773438,116.61991119384766,-9.36525249481201,2.29213261604309,-1.16832566261292,15.39989662170410,-4.53327226638794,-3.86217951774597
591,682776009,115.04414367675781,75.32423400878906,116.54244995117188,-9.32785797119141,2.23247981071472,-1.21513581275940,15.20397186279297,-3.84780931472778,-3.51654076576233
592,682784342,115.12742614746094,75.36615753173828,116.49649810791016,-9.33605861663818,2.21998763084412,-1.14148545265198,15.66239261627197,-3.83571934700012,-3.37740421295166
593,682792675,115.16384887695312,75.41090393066406,116.40036010742188,-9.31200313568115,2.14998531341553,-1.01374638080597,16.13241195678711,-4.35369062423706,-3.26383042335510
594,682801008,115.24259948730469,75.45523834228516,116.34749603271484,-9.34526729583740,2.10810613632202,-1.06263554096222,16.33404731750488,-4.23038387298584,-3.51413321495056
595,682809341,115.26347351074219,75.50684356689453,116.22743225097656,-9.37434196472168,2.12777471542358,-0.99070465564728,17.05016899108887,-5.34511518478394,-3.69550681114197
596,682817674,115.31386566162109,75.56093597412109,116.13681030273438,-9.36482620239258,2.11262321472168,-1.01526319980621,17.21589660644531,-5.71227025985718,-4.09821462631226
597,682826007,115.34944915771484,75.61740112304688,116.02500915527344,-9.30441188812256,2.09350299835205,-0.84254580736160,17.86104011535645,-5.35943412780762,-4.33399343490601
598,682834340,115.42921447753906,75.67202758789062,115.95691680908203,-9.27541160583496,2.10556745529175,-1.06425917148590,17.72505569458008,-5.00877523422241,-4.47382164001465
599,682842673,115.47554016113281,75.72824859619141,115.86154174804688,-9.28033733367920,2.11574077606201,-1.13161599636078,17.24617004394531,-4.89584159851074,-4.51180744171143
600,682851006,115.55050659179688,75.78615570068359,115.79240417480469,-9.26452255249023,2.14758872985840,-0.97027975320816,17.85763549804688,-5.32183265686035,-4.75030231475830
601,682859339,115.60037994384766,75.84893798828125,115.70179748535156,-9.20484352111816,2.09651827812195,-1.09990346431732,17.12337875366211,-5.10003900527954,-5.28010702133179
602,682867672,115.68904876708984,75.91283416748047,115.66138458251953,-9.26609706878662,2.02586960792542,-1.10659599304199,16.77187347412109,-4.99066543579102,-5.69531345367432
603,682876005,115.74520874023438,75.98160552978516,115.57585906982422,-9.28780937194824,1.98252010345459,-1.17268633842468,17.29074096679688,-5.27488183975220,-5.99100494384766
604,682884338,115.84683990478516,76.05049133300781,115.54039764404297,-9.28924655914307,1.90899074077606,-1.18535220623016,16.95071220397949,-4.93477582931519,-6.37127399444580
605,682892671,115.92913055419922,76.12075805664062,115.48729705810547,-9.25876140594482,1.81011438369751,-1.16646063327789,16.66265296936035,-4.51280689239502,-6.55267333984375
606,682901004,116.05747222900391,76.18769073486328,115.48772430419922,-9.23858928680420,1.69512307643890,-1.29701662063599,16.67292404174805,-4.06670904159546,-6.52116823196411
607,682909337,116.17165374755859,76.25355529785156,115.46543884277344,-9.19158935546875,1.68766069412231,-1.39729201793671,16.90025138854980,-3.49968624114990,-6.44775819778442
608,682917670,116.34138488769531,76.31385803222656,115.50653076171875,-9.12869167327881,1.71011769771576,-1.33908176422119,16.34915924072266,-2.61151266098022,-6.33221101760864
609,682926003,116.49568176269531,76.37133789062500,115.52973937988281,-9.06672954559326,1.78395557403564,-1.28378176689148,16.41009330749512,-1.93755054473877,-6.10457706451416
610,682934336,116.72023010253906,76.42370605468750,115.63449096679688,-9.05654430389404,1.77493202686310,-1.35880911350250,15.73418617248535,-0.67845714092255,-6.21384811401367
611,682942669,116.93061065673828,76.47470092773438,115.72920989990234,-9.09426212310791,1.80777168273926,-1.28069472312927,14.79770374298096,0.15993531048298,-6.29553174972534
612,682951002,117.21373748779297,76.51947021484375,115.90094757080078,-9.16084957122803,1.75897228717804,-1.35164260864258,14.90748691558838,1.31828808784485,-6.24184465408325
613,682959335,117.49225616455078,76.56273651123047,116.06115722656250,-9.22488021850586,1.70727682113647,-1.48314058780670,15.33117294311523,2.13102793693542,-6.29840040206909
614,682967668,117.84159851074219,76.60270690917969,116.29573059082031,-9.28368473052979,1.71912968158722,-1.66447079181671,15.53485870361328,3.02155828475952,-6.51558446884155
615,682976001,118.16345214843750,76.64395904541016,116.50000000000000,-9.33789920806885,1.74823999404907,-1.66143488883972,15.38158130645752,3.22063183784485,-6.66307020187378
616,682984334,118.51054382324219,76.68374633789062,116.73619842529297,-9.37148666381836,1.72741043567657,-1.64197695255280,15.56193065643311,2.82368803024292,-6.47429323196411
617,682992667,118.84436035156250,76.71850585937500,116.95255279541016,-9.37410831451416,1.61904358863831,-1.86875808238983,15.39843654632568,3.77397656440735,-6.15862464904785
618,683001000,119.23303985595703,76.75020599365234,117.22882080078125,-9.41376590728760,1.51049804687500,-1.93109178543091,15.45568370819092,4.20001840591431,-6.21651220321655
619,683009333,119.56750488281250,76.78461456298828,117.43840789794922,-9.43670082092285,1.47731482982635,-1.88924992084503,16.26078987121582,3.52144575119019,-6.05260658264160
620,683017666,119.92372894287109,76.82003021240234,117.66458892822266,-9.44047737121582,1.50411629676819,-1.71693336963654,17.15459823608398,2.67935204505920,-5.95463228225708
621,683025999,120.21472930908203,76.85416412353516,117.82393646240234,-9.40266799926758,1.47746694087982,-1.50027108192444,16.90911293029785,2.24752163887024,-5.35707759857178
622,683034332,120.51454925537109,76.88292694091797,118.00116729736328,-9.42488002777100,1.35581946372986,-1.42613959312439,16.12879943847656,1.78866791725159,-4.57868623733521
623,683042665,120.74826812744141,76.90972137451172,118.10760498046875,-9.50212478637695,1.24687445163727,-1.58425474166870,16.21399307250977,1.38234925270081,-3.86994004249573
624,683050998,121.00737762451172,76.92859649658203,118.24027252197266,-9.55049037933350,1.16558885574341,-1.74423873424530,16.56534385681152,1.26442122459412,-2.90751075744629
625,683059331,121.23352050781250,76.94020080566406,118.32580566406250,-9.55677413940430,1.18843924999237,-1.98741352558136,17.74984931945801,1.78900110721588,-2.02156567573547
626,683067664,121.51854705810547,76.93973541259766,118.46848297119141,-9.58643341064453,1.21126210689545,-2.21613955497742,18.58187866210938,2.63373303413391,-1.01751291751862
627,683075997,121.74172973632812,76.93814849853516,118.52954864501953,-9.63198089599609,1.23723626136780,-2.27592897415161,20.25364303588867,2.03387331962585,-0.33084639906883
628,683084330,121.96031188964844,76.93793487548828,118.56697845458984,-9.72697925567627,1.16626834869385,-2.10924720764160,22.72388458251953,0.16582664847374,0.45693257451057
629,683092663,122.05266571044922,76.94611358642578,118.44800567626953,-9.71940994262695,1.20100867748260,-1.93923223018646,25.60051918029785,-2.73907256126404,1.24925827980042
630,683100996,122.15159606933594,76.95570373535156,118.32326507568359,-9.69427299499512,1.27282917499542,-1.82525205612183,27.55645561218262,-4.28466320037842,1.87375974655151
631,683109329,122.18215179443359,76.96287536621094,118.11636352539062,-9.70032691955566,1.36426067352295,-1.83353507518768,28.46632194519043,-4.68042755126953,2.63391351699829
632,683117662,122.23089599609375,76.96321105957031,117.93019866943359,-9.81195163726807,1.37226712703705,-1.73675239086151,28.74037170410156,-5.13339090347290,3.74954247474670
633,683125995,122.18137359619141,76.96666717529297,117.62494659423828,-9.93040084838867,1.33063185214996,-1.74849736690521,30.35591888427734,-6.69445228576660,4.43193244934082
634,683134328,122.13681793212891,76.97168731689453,117.32177734375000,-9.89900970458984,1.26147675514221,-1.73157441616058,31.48432731628418,-8.18228340148926,5.02807903289795
635,683142661,122.01029205322266,76.98091888427734,116.91019439697266,-9.78882312774658,1.28686797618866,-1.71497094631195,33.54899215698242,-9.50477313995361,5.35404634475708
636,683150994,121.96387481689453,76.98703002929688,116.57645416259766,-9.67248916625977,1.32058525085449,-1.85664868354797,34.80468750000000,-8.96039485931396,5.37307834625244
637,683159327,121.89804840087891,76.98765563964844,116.20983886718750,-9.63657283782959,1.33105063438416,-1.83334112167358,35.57690429687500,-7.93636131286621,5.55734777450562
638,683167660,121.88736724853516,76.98641967773438,115.89754486083984,-9.61063575744629,1.26965010166168,-1.88882517814636,36.45322418212891,-8.00019359588623,5.82691287994385
639,683175993,121.78678131103516,76.98807525634766,115.48146820068359,-9.66905689239502,1.15381097793579,-1.91209888458252,37.19089126586914,-9.14935302734375,6.14286470413208
640,683184326,121.67065429687500,77.00033569335938,115.04179382324219,-9.70593833923340,1.14784562587738,-1.86924350261688,38.91617584228516,-11.85716629028320,6.30428695678711
641,683192659,121.44757080078125,77.02098083496094,114.46064758300781,-9.71723937988281,1.11957597732544,-1.80820798873901,41.79899215698242,-14.15587139129639,6.46967887878418
642,683200992,121.26370239257812,77.04332733154297,113.90799713134766,-9.79963779449463,1.06911015510559,-1.82623815536499,44.01992416381836,-15.10004615783691,6.83683776855469
643,683209325,121.00013732910156,77.06243896484375,113.25392913818359,-9.83874607086182,1.14548456668854,-1.75698041915894,45.48339462280273,-15.73876380920410,7.51533508300781
644,683217658,120.80199432373047,77.07613372802734,112.65565490722656,-9.78299808502197,1.10387921333313,-1.90687370300293,47.73356246948242,-15.66968345642090,8.27600383758545
645,683225991,120.55517578125000,77.08457183837891,111.98571014404297,-9.77401828765869,1.04677677154541,-1.93837678432465,49.35846328735352,-15.48016834259033,8.68818950653076
646,683234324,120.35607910156250,77.09465026855469,111.36276245117188,-9.72923851013184,1.06172323226929,-1.87169659137726,50.44131469726562,-16.05108642578125,8.90862751007080
647,683242657,120.09521484375000,77.10385131835938,110.65324401855469,-9.66967678070068,1.09380018711090,-1.79000890254974,52.31242752075195,-16.48947906494141,9.00173759460449
648,683250990,119.88098144531250,77.11763763427734,109.97701263427734,-9.64935111999512,1.17199075222015,-1.70612621307373,54.93765640258789,-17.57570838928223,9.17927360534668
649,683259323,119.59750366210938,77.12776947021484,109.21456146240234,-9.63706970214844,1.17831325531006,-1.69085514545441,55.79962921142578,-17.81955909729004,9.44888973236084
650,683267656,119.36103820800781,77.13908386230469,108.52988433837891,-9.64042758941650,1.09858858585358,-1.70013391971588,53.40296173095703,-17.70467376708984,9.45559883117676
651,683275989,119.00137329101562,77.14772796630859,107.70791625976562,-9.58099937438965,1.09893739223480,-1.66131722927094,53.62720870971680,-19.18180084228516,10.19037055969238
652,683284322,118.66855621337891,77.15763092041016,106.90091705322266,-9.49756622314453,1.04735255241394,-1.61292469501495,56.16814804077148,-20.56283187866211,11.02640151977539
653,683292655,118.24097442626953,77.15770721435547,105.98909759521484,-9.50467586517334,1.02603960037231,-1.58820044994354,55.99694824218750,-20.90237236022949,11.97702407836914
654,683300988,117.84600830078125,77.15238952636719,105.13588714599609,-9.47052288055420,1.00133705139160,-1.53134751319885,54.24826812744141,-20.94117355346680,13.02459621429443
655,683309321,117.34000396728516,77.13773345947266,104.15522003173828,-9.47277259826660,1.01358711719513,-1.55310320854187,54.63612747192383,-21.91044807434082,14.08075237274170
656,683317654,116.84135437011719,77.12499237060547,103.17272949218750,-9.50107002258301,1.00184130668640,-1.67099583148956,56.86856079101562,-23.81885147094727,15.13680934906006
657,683325987,116.25240325927734,77.10173034667969,102.07982635498047,-9.50091266632080,1.02455842494965,-1.57964050769806,57.80103683471680,-24.44171524047852,15.96738243103027
658,683334320,115.73404693603516,77.07405853271484,101.06076049804688,-9.48322582244873,1.03078436851501,-1.40911722183228,58.83169174194336,-24.27640533447266,16.83614730834961
659,683342653,115.15267181396484,77.03149414062500,99.97515869140625,-9.45518684387207,0.99136567115784,-1.36610138416290,57.83065414428711,-23.69467735290527,17.55183410644531
660,683350986,114.62178802490234,76.98555755615234,98.95711517333984,-9.38087272644043,0.99770629405975,-1.32592785358429,57.13673019409180,-23.75184631347656,18.48406791687012
661,683359319,113.98242950439453,76.92761230468750,97.81620025634766,-9.35052490234375,0.94578331708908,-1.41364562511444,57.28683090209961,-24.83497428894043,19.45228958129883
662,683367652,113.37804412841797,76.86920928955078,96.70973968505859,-9.38096523284912,0.95646512508392,-1.38543236255646,58.53465270996094,-25.88032913208008,20.49538803100586
663,683375985,112.68721008300781,76.79818725585938,95.48179626464844,-9.41732311248779,1.00498390197754,-1.43488740921021,61.21575546264648,-27.09496879577637,21.37747573852539
664,683384318,112.05030059814453,76.72639465332031,94.30664825439453,-9.39770507812500,1.03164029121399,-1.36516976356506,62.69345474243164,-27.73274803161621,22.32275199890137
665,683392651,111.33238220214844,76.63616943359375,93.03314208984375,-9.41264820098877,1.08399021625519,-1.31746089458466,63.19921493530273,-28.25400161743164,23.47932243347168
666,683400984,110.67597198486328,76.54086303710938,91.83473968505859,-9.36551380157471,1.12074851989746,-1.19247055053711,62.94712066650391,-28.19068336486816,24.75035285949707
667,683409317,109.93191528320312,76.42357635498047,90.53591918945312,-9.24963283538818,1.18790221214294,-1.16931354999542,62.89449310302734,-28.83243179321289,26.24697875976562
668,683417650,109.23930358886719,76.30082702636719,89.29271697998047,-9.14192962646484,1.26454484462738,-1.17265009880066,63.62866210937500,-29.33550262451172,27.82895469665527
669,683425983,108.46598815917969,76.15896606445312,87.93981933593750,-9.11011886596680,1.36807501316071,-1.19147920608521,65.52347564697266,-30.61915016174316,29.00819587707520
670,683434316,107.77536773681641,76.01795959472656,86.68244171142578,-9.13223361968994,1.54907333850861,-1.06988418102264,65.33731842041016,-30.32650566101074,29.58234214782715
671,683442649,107.02465057373047,75.86022949218750,85.36609649658203,-9.31238365173340,1.74888265132904,-0.52728193998337,63.78643417358398,-30.51499748229980,29.94752502441406
672,683450982,106.19543457031250,75.72370910644531,83.92951202392578,-9.62186622619629,2.37345433235168,-0.02856679633260,69.40246582031250,-36.98096847534180,30.03833198547363
673,683459315,105.54636383056641,75.55952453613281,82.75965118408203,-9.83830451965332,2.61549878120422,-1.10527682304382,58.75555038452148,-27.65559577941895,28.88842964172363
674,683467648,105.03546905517578,75.40102386474609,81.88708496093750,-10.39156532287598,2.26535224914551,-0.83387172222137,41.80641555786133,-21.34587478637695,27.52526092529297
675,683475981,104.29122161865234,75.24255371093750,80.76468658447266,-10.29304122924805,2.07614946365356,-0.19482892751694,41.62800979614258,-27.76522827148438,27.45558929443359
676,683484314,103.46891784667969,75.10305023193359,79.50324249267578,-9.58753585815430,2.02741408348083,-0.42034971714020,49.38845825195312,-34.62047576904297,27.77172660827637
677,683492647,102.61084747314453,74.94857788085938,78.16778564453125,-9.02297878265381,1.74236369132996,-0.62026619911194,52.49267578125000,-35.72310638427734,27.82360267639160
678,683500980,101.81599426269531,74.79990386962891,76.91034698486328,-9.10270881652832,1.38443839550018,-0.63876754045486,52.02393341064453,-35.68220138549805,28.02124786376953
679,683509313,100.91806030273438,74.63384246826172,75.53053283691406,-9.48465251922607,1.33556032180786,-0.87384790182114,52.61909866333008,-38.43252563476562,28.55713081359863
