// Start Time: Unknown
// Update Rate: 100.0Hz
//Filter Profile: human (46.1)
// Option Flags: AHS Disabled ICC Disabled
// Firmware Version: 4.0.2
PacketCounter	SampleTimeFine	Year	Month	Day	Second	UTC_Nano	UTC_Year	UTC_Month	UTC_Day	UTC_Hour	UTC_Minute	UTC_Second	UTC_Valid	Acc_X	Acc_Y	Acc_Z	Mat[1][1]	Mat[1][2]	Mat[1][3]	Mat[2][1]	Mat[2][2]	Mat[2][3]	Mat[3][1]	Mat[3][2]	Mat[3][3]
1	3343411218													0.032290	0.016276	-0.000294	0.091727	-0.803857	-0.587708	0.083362	0.594323	-0.799894	0.992289	0.024379	0.121526
2	3343427885													-0.006414	-0.014929	-0.014016	0.091710	-0.803745	-0.587864	0.083496	0.594480	-0.799764	0.992279	0.024262	0.121629
3	3343444552													-0.001236	-0.013716	-0.054405	0.091676	-0.803622	-0.588036	0.083618	0.594650	-0.799625	0.992272	0.024136	0.121712
4	3343461219													0.012835	0.012012	-0.031019	0.091653	-0.803573	-0.588107	0.083714	0.594720	-0.799562	0.992266	0.024049	0.121778
5	3343477886													0.037759	0.011226	-0.029220	0.091636	-0.803522	-0.588179	0.083738	0.594790	-0.799508	0.992266	0.024011	0.121789
6	3343494553													0.029775	0.006665	-0.029459	0.091544	-0.803502	-0.588222	0.083772	0.594822	-0.799480	0.992271	0.023911	0.121763
7	3343511220													0.004062	0.036490	-0.010475	0.091452	-0.803527	-0.588201	0.083763	0.594790	-0.799505	0.992280	0.023847	0.121700
8	3343527887													0.029377	-0.005882	-0.014482	0.091391	-0.803633	-0.588066	0.083724	0.594647	-0.799615	0.992289	0.023843	0.121628
9	3343544554													0.060701	0.012373	-0.026595	0.091274	-0.803794	-0.587864	0.083703	0.594432	-0.799778	0.992302	0.023793	0.121536
10	3343561221													0.096988	-0.011129	-0.007368	0.091204	-0.803914	-0.587711	0.083686	0.594270	-0.799900	0.992310	0.023771	0.121476
11	3343577888													0.071866	-0.005827	-0.003526	0.091156	-0.803932	-0.587694	0.083627	0.594246	-0.799924	0.992319	0.023771	0.121400
12	3343594555													0.040792	0.018360	-0.005960	0.091113	-0.803880	-0.587771	0.083595	0.594317	-0.799875	0.992326	0.023744	0.121350
13	3343611222													0.047114	0.000837	-0.045355	0.091104	-0.803847	-0.587819	0.083586	0.594363	-0.799841	0.992327	0.023735	0.121339
14	3343627889													0.056509	0.020111	-0.030873	0.091130	-0.803832	-0.587835	0.083546	0.594381	-0.799832	0.992328	0.023777	0.121322
15	3343644556													0.091134	-0.000286	-0.029154	0.091136	-0.803808	-0.587867	0.083546	0.594414	-0.799808	0.992328	0.023777	0.121328
16	3343661223													0.086665	0.001863	-0.023499	0.091213	-0.803733	-0.587957	0.083533	0.594512	-0.799736	0.992322	0.023833	0.121365
17	3343677890													0.050555	-0.001808	-0.030632	0.091260	-0.803636	-0.588083	0.083543	0.594644	-0.799637	0.992317	0.023845	0.121405
18	3343694557													0.013735	0.008534	-0.030904	0.091335	-0.803519	-0.588231	0.083542	0.594800	-0.799521	0.992310	0.023882	0.121454
19	3343711224													0.018780	0.013221	-0.032301	0.091370	-0.803372	-0.588426	0.083543	0.594999	-0.799373	0.992306	0.023880	0.121482
20	3343727891													0.022627	-0.024071	-0.022626	0.091432	-0.803312	-0.588498	0.083516	0.595078	-0.799317	0.992303	0.023934	0.121498
21	3343744558													0.011738	-0.012411	-0.014950	0.091459	-0.803222	-0.588617	0.083433	0.595197	-0.799237	0.992307	0.023988	0.121451
22	3343761225													0.019137	0.004439	-0.035314	0.091499	-0.803111	-0.588762	0.083367	0.595345	-0.799134	0.992309	0.024037	0.121426
23	3343777892													0.027448	0.018861	-0.037643	0.091537	-0.803020	-0.588880	0.083304	0.595465	-0.799050	0.992311	0.024086	0.121402
24	3343794559													0.036730	-0.010527	-0.039133	0.091603	-0.802984	-0.588919	0.083232	0.595510	-0.799025	0.992311	0.024176	0.121384
25	3343811226													0.039492	0.011637	-0.025451	0.091684	-0.803003	-0.588880	0.083151	0.595479	-0.799056	0.992310	0.024295	0.121366
26	3343827893													0.066670	0.008785	-0.000434	0.091755	-0.802981	-0.588899	0.083060	0.595505	-0.799046	0.992311	0.024403	0.121336
27	3343844560													0.040139	-0.003129	-0.010544	0.091834	-0.802901	-0.588996	0.082976	0.595608	-0.798978	0.992311	0.024501	0.121318
28	3343861227													0.022940	0.037178	-0.019362	0.091896	-0.802827	-0.589088	0.082925	0.595706	-0.798910	0.992310	0.024567	0.121317
29	3343877894													0.022146	0.005028	-0.014556	0.091959	-0.802847	-0.589051	0.082904	0.595676	-0.798935	0.992306	0.024635	0.121337
30	3343894561													0.044967	0.026730	-0.027176	0.092021	-0.802907	-0.588959	0.082860	0.595592	-0.799002	0.992304	0.024724	0.121336
31	3343911228													0.059330	0.033374	-0.012521	0.092018	-0.802969	-0.588875	0.082856	0.595508	-0.799065	0.992304	0.024736	0.121328
32	3343927895													0.085887	-0.009514	-0.024602	0.092054	-0.802963	-0.588877	0.082858	0.595514	-0.799061	0.992301	0.024764	0.121352
33	3343944562													0.065357	-0.008968	-0.008103	0.092101	-0.802909	-0.588944	0.082854	0.595586	-0.799007	0.992297	0.024793	0.121378
34	3343961229													0.048623	-0.007671	-0.014639	0.092176	-0.802851	-0.589012	0.082901	0.595664	-0.798944	0.992286	0.024814	0.121463
35	3343977896													0.066911	0.036903	-0.014442	0.092262	-0.802834	-0.589021	0.083004	0.595686	-0.798917	0.992269	0.024818	0.121597
36	3343994563													0.090325	0.042198	-0.018619	0.092349	-0.802834	-0.589007	0.083119	0.595686	-0.798905	0.992251	0.024820	0.121741
37	3344011230													0.087941	0.015647	-0.010201	0.092429	-0.802779	-0.589070	0.083241	0.595761	-0.798836	0.992234	0.024800	0.121890
38	3344027897													0.083356	0.007441	-0.026310	0.092470	-0.802697	-0.589175	0.083355	0.595874	-0.798740	0.992220	0.024749	0.122009
39	3344044564													0.059336	0.034313	-0.016277	0.092429	-0.802645	-0.589252	0.083445	0.595947	-0.798676	0.992217	0.024651	0.122060
40	3344061231													0.051085	0.044398	-0.022182	0.092383	-0.802670	-0.589226	0.083497	0.595917	-0.798693	0.992216	0.024587	0.122074
41	3344077898													0.053245	0.003518	-0.016777	0.092404	-0.802695	-0.589188	0.083533	0.595883	-0.798715	0.992212	0.024588	0.122113
42	3344094565													0.050899	0.017299	-0.005608	0.092434	-0.802712	-0.589160	0.083672	0.595862	-0.798716	0.992197	0.024532	0.122243
43	3344111232													0.081076	-0.013809	-0.003351	0.092391	-0.802643	-0.589261	0.083816	0.595961	-0.798627	0.992189	0.024396	0.122335
44	3344127899													0.068964	-0.011941	-0.022204	0.092433	-0.802504	-0.589444	0.083902	0.596150	-0.798477	0.992178	0.024350	0.122436
45	3344144566													0.000956	0.016901	-0.026595	0.092502	-0.802375	-0.589608	0.083946	0.596323	-0.798343	0.992168	0.024353	0.122517
46	3344161233													-0.029942	0.029589	-0.021877	0.092574	-0.802365	-0.589611	0.083903	0.596334	-0.798340	0.992164	0.024436	0.122526
47	3344177900													-0.041005	0.019979	-0.000531	0.092652	-0.802532	-0.589371	0.083907	0.596104	-0.798511	0.992157	0.024531	0.122568
48	3344194567													0.004920	-0.035240	0.018514	0.092611	-0.802707	-0.589139	0.083992	0.595871	-0.798676	0.992153	0.024484	0.122605
49	3344211234													0.040639	0.003665	-0.027304	0.092674	-0.802770	-0.589044	0.084086	0.595786	-0.798729	0.992140	0.024491	0.122715
50	3344227901													0.081735	0.016355	-0.048651	0.092655	-0.802845	-0.588944	0.084146	0.595686	-0.798798	0.992136	0.024455	0.122750
51	3344244568													0.065596	-0.014395	-0.021040	0.092585	-0.802863	-0.588930	0.084190	0.595665	-0.798809	0.992139	0.024376	0.122743
52	3344261235													0.053962	0.003013	-0.000220	0.092515	-0.802804	-0.589022	0.084236	0.595748	-0.798742	0.992142	0.024279	0.122741
53	3344277902													0.033790	0.036734	-0.004249	0.092461	-0.802748	-0.589107	0.084257	0.595827	-0.798681	0.992145	0.024210	0.122728
54	3344294569													-0.035370	0.048472	-0.043938	0.092321	-0.802726	-0.589158	0.084267	0.595861	-0.798654	0.992157	0.024086	0.122654
55	3344311236													-0.032232	0.059874	-0.073006	0.092243	-0.802884	-0.588956	0.084288	0.595651	-0.798809	0.992163	0.024042	0.122618
56	3344327903													0.005639	-0.004054	-0.034315	0.092237	-0.803173	-0.588562	0.084297	0.595258	-0.799101	0.992162	0.024092	0.122610
57	3344344570													0.039258	-0.026761	0.018527	0.092146	-0.803392	-0.588277	0.084323	0.594965	-0.799316	0.992169	0.024048	0.122568
58	3344361237													0.081516	0.009538	-0.028998	0.091978	-0.803529	-0.588116	0.084373	0.594785	-0.799445	0.992180	0.023910	0.122503
59	3344377904													0.059535	-0.004544	-0.049698	0.091845	-0.803546	-0.588114	0.084417	0.594768	-0.799453	0.992189	0.023779	0.122459
60	3344394571													-0.010720	0.024502	-0.031862	0.091734	-0.803542	-0.588137	0.084434	0.594777	-0.799444	0.992197	0.023678	0.122408
61	3344411238													0.008580	-0.003658	-0.001520	0.091611	-0.803567	-0.588122	0.084440	0.594747	-0.799466	0.992208	0.023578	0.122339
62	3344427905													0.040526	-0.015639	-0.002404	0.091531	-0.803650	-0.588021	0.084444	0.594637	-0.799548	0.992215	0.023528	0.122291
63	3344444572													0.046167	0.042441	-0.034773	0.091445	-0.803672	-0.588005	0.084387	0.594609	-0.799574	0.992228	0.023497	0.122194
64	3344461239													0.041145	0.009049	-0.044313	0.091356	-0.803651	-0.588046	0.084359	0.594639	-0.799555	0.992239	0.023438	0.122119
65	3344477906													0.042182	-0.032153	-0.035675	0.091272	-0.803633	-0.588085	0.084397	0.594668	-0.799529	0.992243	0.023342	0.122100
66	3344494573													0.031571	-0.018144	-0.024768	0.091122	-0.803667	-0.588062	0.084399	0.594626	-0.799560	0.992257	0.023226	0.122012
67	3344511240													0.035276	-0.035048	-0.054074	0.091068	-0.803755	-0.587950	0.084413	0.594509	-0.799646	0.992261	0.023191	0.121988
68	3344527907													0.097467	-0.004779	-0.062294	0.091043	-0.803865	-0.587803	0.084479	0.594361	-0.799749	0.992257	0.023155	0.122022
69	3344544574													0.113367	0.030387	-0.027919	0.091011	-0.803807	-0.587887	0.084524	0.594442	-0.799684	0.992256	0.023090	0.122042
70	3344561241													0.073934	0.001332	0.006211	0.091024	-0.803728	-0.587993	0.084589	0.594550	-0.799596	0.992250	0.023044	0.122105
71	3344577908													0.047507	-0.023595	-0.016295	0.091020	-0.803698	-0.588034	0.084651	0.594592	-0.799559	0.992245	0.022998	0.122154
72	3344594575													0.035925	-0.010953	-0.037761	0.091033	-0.803670	-0.588071	0.084765	0.594633	-0.799516	0.992234	0.022934	0.122254
73	3344611242													0.038536	0.003142	-0.049563	0.091073	-0.803588	-0.588176	0.084855	0.594745	-0.799424	0.992222	0.022896	0.122354
74	3344627909													0.056045	0.002538	-0.018489	0.091147	-0.803523	-0.588254	0.084961	0.594834	-0.799346	0.992207	0.022879	0.122485
75	3344644576													0.034044	0.004064	-0.012126	0.091207	-0.803546	-0.588214	0.084989	0.594802	-0.799367	0.992199	0.022916	0.122543
76	3344661243													0.004586	-0.015487	-0.037227	0.091244	-0.803562	-0.588186	0.084959	0.594778	-0.799388	0.992198	0.022967	0.122540
77	3344677910													0.041095	-0.001427	-0.043295	0.091295	-0.803565	-0.588174	0.084992	0.594773	-0.799388	0.992190	0.022990	0.122596
78	3344694577													0.023237	-0.020859	-0.016963	0.091340	-0.803576	-0.588152	0.085020	0.594757	-0.799397	0.992184	0.023012	0.122645
79	3344711244													0.011913	-0.003780	-0.031331	0.091387	-0.803648	-0.588047	0.085015	0.594658	-0.799471	0.992180	0.023069	0.122666
80	3344727911													0.011126	0.016855	-0.047575	0.091422	-0.803727	-0.587932	0.085006	0.594549	-0.799554	0.992177	0.023120	0.122676
81	3344744578													0.021493	0.010149	-0.028530	0.091488	-0.803796	-0.587829	0.085050	0.594455	-0.799619	0.992168	0.023161	0.122748
82	3344761245													0.048094	0.015562	-0.020256	0.091569	-0.803894	-0.587682	0.085138	0.594320	-0.799709	0.992153	0.023194	0.122863
83	3344777912													0.050218	0.014002	-0.028275	0.091608	-0.804006	-0.587522	0.085212	0.594168	-0.799815	0.992143	0.023206	0.122942
84	3344794579													0.059962	-0.009890	-0.014669	0.091693	-0.804115	-0.587360	0.085302	0.594019	-0.799915	0.992127	0.023243	0.123060
85	3344811246													0.074184	0.007154	-0.059349	0.091806	-0.804190	-0.587239	0.085428	0.593916	-0.799979	0.992106	0.023276	0.123226
86	3344827913													0.086312	0.012811	-0.049309	0.091909	-0.804194	-0.587218	0.085591	0.593912	-0.799964	0.992082	0.023263	0.123418
87	3344844580													0.107571	0.008031	-0.021379	0.092041	-0.804119	-0.587299	0.085784	0.594013	-0.799868	0.992053	0.023240	0.123654
88	3344861247													0.129672	0.007597	-0.017712	0.092149	-0.803892	-0.587594	0.086044	0.594326	-0.799608	0.992021	0.023124	0.123936
89	3344877914													0.099770	0.061607	-0.020369	0.092212	-0.803617	-0.587960	0.086271	0.594704	-0.799303	0.991995	0.022981	0.124167
90	3344894581													0.107004	0.036361	-0.048099	0.092337	-0.803286	-0.588392	0.086578	0.595156	-0.798933	0.991957	0.022829	0.124502
91	3344911248													0.112921	0.042358	-0.014447	0.092338	-0.802991	-0.588795	0.086806	0.595562	-0.798605	0.991937	0.022631	0.124697
92	3344927915													0.080783	0.051312	-0.023730	0.092368	-0.802709	-0.589174	0.086964	0.595946	-0.798302	0.991920	0.022501	0.124853
93	3344944582													0.041828	-0.001337	0.003764	0.092382	-0.802459	-0.589513	0.087128	0.596288	-0.798028	0.991904	0.022361	0.125003
94	3344961249													0.011502	0.000148	-0.007324	0.092439	-0.802114	-0.589973	0.087320	0.596758	-0.797656	0.991882	0.022218	0.125204
95	3344977916													0.010588	-0.000992	-0.026624	0.092494	-0.801771	-0.590431	0.087464	0.597223	-0.797292	0.991864	0.022103	0.125365
96	3344994583													-0.015311	-0.013619	-0.039869	0.092527	-0.801379	-0.590957	0.087505	0.597751	-0.796892	0.991858	0.022023	0.125433
97	3345011250													-0.009615	-0.021856	-0.043660	0.092604	-0.800922	-0.591565	0.087475	0.598364	-0.796435	0.991853	0.022006	0.125471
98	3345027917													-0.038942	-0.043872	-0.034864	0.092646	-0.800442	-0.592207	0.087367	0.599006	-0.795964	0.991859	0.022003	0.125428
99	3345044584													-0.060965	-0.087326	-0.008998	0.092682	-0.799990	-0.592812	0.087192	0.599608	-0.795530	0.991871	0.022043	0.125325
100	3345061251													-0.103735	-0.050184	0.039687	0.092624	-0.799622	-0.593317	0.086973	0.600098	-0.795184	0.991895	0.022051	0.125130
101	3345077918													-0.136917	-0.020353	0.020667	0.092487	-0.799368	-0.593681	0.086662	0.600437	-0.794963	0.991935	0.022075	0.124807
102	3345094585													-0.119222	-0.019348	-0.018428	0.092308	-0.799382	-0.593690	0.086323	0.600415	-0.795016	0.991982	0.022137	0.124428
103	3345111252													-0.052866	0.006670	-0.046499	0.092093	-0.799534	-0.593518	0.085912	0.600208	-0.795216	0.992037	0.022244	0.123965
104	3345127919													0.012823	0.011848	-0.008402	0.091895	-0.799704	-0.593321	0.085446	0.599977	-0.795441	0.992096	0.022400	0.123466
105	3345144586													0.044280	-0.026977	-0.019085	0.091697	-0.799817	-0.593198	0.084963	0.599820	-0.795612	0.992156	0.022555	0.122956
106	3345161253													0.086255	-0.017121	-0.041142	0.091512	-0.799879	-0.593144	0.084488	0.599732	-0.795728	0.992213	0.022705	0.122463
107	3345177920													0.076342	-0.016686	-0.015252	0.091370	-0.799886	-0.593156	0.083987	0.599715	-0.795794	0.992269	0.022895	0.121976
108	3345194587													0.072575	0.013087	-0.023962	0.091231	-0.799845	-0.593233	0.083527	0.599764	-0.795806	0.992321	0.023051	0.121526
109	3345211254													0.045023	0.021156	-0.059521	0.091090	-0.799825	-0.593281	0.083079	0.599785	-0.795837	0.992371	0.023203	0.121083
110	3345227921													0.052144	0.025205	-0.042034	0.090971	-0.799844	-0.593273	0.082675	0.599753	-0.795903	0.992416	0.023355	0.120687
111	3345244588													0.051337	0.013199	-0.028469	0.090897	-0.799895	-0.593216	0.082235	0.599676	-0.796006	0.992459	0.023572	0.120288
112	3345261255													0.061805	0.003461	-0.021101	0.090821	-0.799965	-0.593133	0.081887	0.599576	-0.796117	0.992495	0.023734	0.119961
113	3345277922													0.082521	0.011269	-0.020781	0.090758	-0.800039	-0.593043	0.081605	0.599473	-0.796224	0.992524	0.023869	0.119695
114	3345294589													0.103305	0.037188	-0.037228	0.090720	-0.800037	-0.593052	0.081378	0.599471	-0.796249	0.992546	0.023974	0.119489
115	3345311256													0.108148	0.005412	-0.032254	0.090729	-0.800057	-0.593023	0.081157	0.599439	-0.796296	0.992563	0.024119	0.119317
116	3345327923													0.112607	0.000798	-0.016231	0.090777	-0.800046	-0.593031	0.081022	0.599448	-0.796302	0.992570	0.024237	0.119238
117	3345344590													0.131411	-0.008881	-0.016027	0.090866	-0.799939	-0.593162	0.080904	0.599587	-0.796210	0.992571	0.024359	0.119200
118	3345361257													0.190678	0.018687	-0.064899	0.091018	-0.799681	-0.593486	0.080836	0.599926	-0.795961	0.992563	0.024471	0.119247
119	3345377924													0.294362	0.096717	-0.060651	0.091134	-0.799332	-0.593939	0.080845	0.600391	-0.795610	0.992552	0.024490	0.119337
120	3345394591													0.366196	0.180484	-0.030289	0.091114	-0.798983	-0.594411	0.080921	0.600860	-0.795247	0.992547	0.024358	0.119401
121	3345411258													0.407483	0.225129	-0.013527	0.091226	-0.798471	-0.595082	0.081131	0.601546	-0.794707	0.992520	0.024219	0.119658
122	3345427925													0.400368	0.359180	-0.006779	0.091359	-0.797923	-0.595796	0.081597	0.602285	-0.794100	0.992469	0.023934	0.120132
123	3345444592													0.400585	0.358828	0.002158	0.091417	-0.797364	-0.596535	0.082315	0.603044	-0.793450	0.992405	0.023431	0.120764
124	3345461259													0.405109	0.356043	0.011195	0.091421	-0.796922	-0.597125	0.083416	0.603657	-0.792868	0.992312	0.022675	0.121663
125	3345477926													0.395515	0.270161	0.043250	0.091331	-0.796786	-0.597320	0.084948	0.603874	-0.792540	0.992191	0.021642	0.122838
126	3345494593													0.331613	0.144990	0.007786	0.091134	-0.796919	-0.597172	0.086809	0.603743	-0.792439	0.992048	0.020378	0.124201
127	3345511260													0.246294	0.116776	0.034546	0.090931	-0.797304	-0.596689	0.089018	0.603280	-0.792546	0.991871	0.018951	0.125831
128	3345527927													0.195156	0.023356	-0.035422	0.090716	-0.797909	-0.595913	0.091685	0.602530	-0.792812	0.991647	0.017284	0.127815
129	3345544594													0.166238	0.007342	0.022072	0.090470	-0.798546	-0.595096	0.094611	0.601736	-0.793072	0.991395	0.015447	0.129990
130	3345561261													0.248768	0.030094	0.014500	0.090382	-0.799018	-0.594475	0.097834	0.601155	-0.793121	0.991090	0.013524	0.132505
131	3345577928													0.161931	0.027292	-0.010167	0.090315	-0.799482	-0.593861	0.101531	0.600583	-0.793090	0.990724	0.011333	0.135414
132	3345594595													0.215849	-0.001070	-0.181605	0.090716	-0.799704	-0.593502	0.105311	0.600321	-0.792795	0.990293	0.009417	0.138676
133	3345611262													0.249730	0.030406	-0.138535	0.091346	-0.799652	-0.593475	0.108841	0.600413	-0.792249	0.989853	0.007774	0.141881
134	3345627929													0.046320	-0.165080	-0.075090	0.091931	-0.799241	-0.593938	0.112589	0.600982	-0.791293	0.989380	0.005873	0.145235
135	3345644596													-0.155880	-0.031695	-0.083758	0.092686	-0.798770	-0.594454	0.116699	0.601623	-0.790209	0.988833	0.003870	0.148978
136	3345661263													0.026659	-0.100262	-0.084609	0.093406	-0.798886	-0.594186	0.121658	0.601481	-0.789570	0.988167	0.001463	0.153373
137	3345677930													0.376355	-0.245551	-0.213879	0.094062	-0.799296	-0.593531	0.126827	0.600937	-0.789170	0.987455	-0.001045	0.157897
138	3345694597													0.429071	-0.329203	-0.150871	0.095150	-0.799391	-0.593229	0.132435	0.600800	-0.788353	0.986614	-0.003552	0.163034
139	3345711264													0.462197	-0.628898	-0.507475	0.096919	-0.799804	-0.592385	0.138228	0.600236	-0.787788	0.985647	-0.005532	0.168729
140	3345727931													0.754801	-0.741739	-0.423241	0.099088	-0.800522	-0.591055	0.144172	0.599261	-0.787465	0.984579	-0.007185	0.174792
141	3345744598													0.981089	-0.702250	-0.378166	0.101691	-0.801185	-0.589712	0.151032	0.598348	-0.786873	0.983284	-0.009047	0.181851
142	3345761265													1.317554	-0.506161	-0.224320	0.105099	-0.801351	-0.588890	0.159199	0.598090	-0.785458	0.981636	-0.011200	0.190433
143	3345777932													1.449441	-0.423874	-0.255551	0.109648	-0.800579	-0.589110	0.168715	0.599073	-0.782717	0.979547	-0.013568	0.200758
144	3345794599													0.737000	-0.777492	-0.202979	0.115079	-0.800022	-0.588831	0.178209	0.599779	-0.780068	0.977240	-0.015165	0.211593
145	3345811266													-0.455255	-0.975529	-0.181425	0.120667	-0.800176	-0.587501	0.187398	0.599546	-0.778092	0.974844	-0.016206	0.222297
146	3345827933													-0.739364	-0.762496	-0.036718	0.126710	-0.801673	-0.584178	0.196293	0.597544	-0.777438	0.972324	-0.016160	0.233078
147	3345844600													-0.753891	-0.023672	0.400653	0.132032	-0.805261	-0.578033	0.205965	0.592698	-0.778645	0.969611	-0.016249	0.244111
148	3345861267													-0.452078	-0.093654	-0.388410	0.137318	-0.811029	-0.568662	0.216863	0.584788	-0.781661	0.966496	-0.015986	0.256184
149	3345877934													-0.121148	0.349430	-1.008572	0.142487	-0.817168	-0.558510	0.227269	0.576202	-0.785073	0.963351	-0.015070	0.267819
150	3345894601													0.366702	0.500339	-0.497211	0.147756	-0.823329	-0.547994	0.236701	0.567411	-0.788681	0.960282	-0.013179	0.278722
151	3345911268													0.182084	0.184888	0.229395	0.152605	-0.829338	-0.537503	0.246043	0.558631	-0.792082	0.957170	-0.011373	0.289302
152	3345927935													0.763184	0.463166	-0.433736	0.157818	-0.832901	-0.530443	0.254335	0.553337	-0.793178	0.954153	-0.009733	0.299162
153	3345944602													0.259590	0.297465	-1.477759	0.164110	-0.833476	-0.527622	0.260968	0.552500	-0.791605	0.951296	-0.007783	0.308182
154	3345961269													-0.323531	0.129355	-0.600195	0.171820	-0.831578	-0.528163	0.265873	0.555385	-0.787946	0.948572	-0.005039	0.316520
155	3345977936													-1.231051	0.119430	0.597089	0.179889	-0.829262	-0.529117	0.270245	0.558857	-0.783994	0.945837	-0.001960	0.324636
156	3345994603													-0.811946	0.140029	1.105625	0.186577	-0.828124	-0.528583	0.274470	0.560544	-0.781317	0.943322	0.000696	0.331879
157	3346011270													-0.474165	0.207849	0.863653	0.192321	-0.828927	-0.525254	0.278771	0.559344	-0.780654	0.940903	0.003710	0.338655
158	3346027937													0.513060	0.388722	0.386434	0.196467	-0.831156	-0.520173	0.283011	0.556003	-0.781515	0.938779	0.006327	0.344462
159	3346044604													0.741401	0.831607	-0.168650	0.200546	-0.832075	-0.517138	0.286438	0.554597	-0.781266	0.936875	0.008552	0.349560
160	3346061271													-0.229351	1.417780	-0.075234	0.205966	-0.830251	-0.517939	0.289253	0.557290	-0.778306	0.934832	0.010490	0.354935
161	3346077938													-0.605177	1.588801	0.227720	0.210820	-0.826950	-0.521256	0.291774	0.562166	-0.773846	0.932965	0.011053	0.359798
162	3346094605													-0.376428	1.315217	0.611768	0.213507	-0.823447	-0.525689	0.293533	0.567305	-0.769417	0.931801	0.009969	0.362832
163	3346111272													-0.476171	0.937617	0.778049	0.214328	-0.820531	-0.529899	0.294802	0.571548	-0.765784	0.931212	0.007914	0.364393
164	3346127939													-1.506432	0.201759	0.383637	0.214505	-0.818621	-0.532773	0.296736	0.574307	-0.762968	0.930557	0.005568	0.366106
165	3346144606													-1.741323	-0.208914	0.131721	0.213668	-0.818106	-0.533900	0.299464	0.575061	-0.761332	0.929875	0.002788	0.367866
166	3346161273													-0.959708	-0.106166	0.390424	0.211860	-0.817698	-0.535243	0.301597	0.575647	-0.760046	0.929599	-0.000405	0.368572
167	3346177940													-0.744207	0.000065	0.525492	0.210009	-0.816085	-0.538425	0.302659	0.577919	-0.757896	0.929674	-0.003794	0.368364
168	3346194607													-1.154592	0.000059	0.213684	0.208249	-0.812991	-0.543763	0.302684	0.582229	-0.754581	0.930062	-0.007448	0.367328
169	3346211274													-1.497903	-0.084271	0.280252	0.206718	-0.808971	-0.550303	0.301755	0.587747	-0.750664	0.930705	-0.010881	0.365609
170	3346227941													-1.495010	-0.236724	0.645286	0.204556	-0.805374	-0.556354	0.300138	0.592599	-0.747491	0.931705	-0.014079	0.362943
171	3346244608													-1.345410	-0.249676	0.807862	0.201220	-0.802958	-0.561042	0.298289	0.595784	-0.745697	0.933024	-0.017303	0.359398
172	3346261275													-0.812442	0.115692	0.702209	0.196414	-0.801883	-0.564274	0.295823	0.597130	-0.745603	0.934832	-0.020478	0.354501
173	3346277942													0.293475	0.697093	0.582635	0.190389	-0.801083	-0.567467	0.291293	0.598106	-0.746604	0.937497	-0.023153	0.347222
174	3346294609													0.849111	0.610318	0.393777	0.185568	-0.798557	-0.572601	0.283673	0.601447	-0.746854	0.940794	-0.023839	0.338139
175	3346311276													-1.096720	-0.173166	0.487693	0.183341	-0.793603	-0.580155	0.274115	0.608022	-0.745097	0.944059	-0.022423	0.329014
176	3346327943													-2.693907	-0.244763	0.789354	0.181728	-0.788688	-0.587321	0.264751	0.614454	-0.743205	0.947038	-0.020432	0.320470
177	3346344610													-2.591774	-0.428955	0.724588	0.177706	-0.785493	-0.592807	0.256183	0.618551	-0.742809	0.950153	-0.019866	0.311150
178	3346361277													-1.441610	-0.461331	0.347080	0.171024	-0.784640	-0.595894	0.247143	0.619633	-0.744967	0.953767	-0.019864	0.299891
179	3346377944													-0.425468	-0.263382	-0.181814	0.163128	-0.785698	-0.596715	0.236673	0.618320	-0.749444	0.957797	-0.018971	0.286819
180	3346394611													-0.246405	-0.820303	-0.700018	0.155662	-0.787813	-0.595919	0.224297	0.615704	-0.755380	0.962008	-0.016079	0.272546
181	3346411278													-0.027610	-0.898511	-0.742373	0.149488	-0.789462	-0.595318	0.210570	0.613690	-0.760950	0.966082	-0.011603	0.257976
182	3346427945													-0.323355	-0.743655	-0.609874	0.143223	-0.790501	-0.595479	0.195439	0.612424	-0.765990	0.970201	-0.006672	0.242208
183	3346444612													-0.577385	-0.899491	-0.257290	0.136625	-0.791441	-0.595780	0.179509	0.611243	-0.770817	0.974223	-0.001635	0.225582
184	3346461279													-0.304336	-0.745154	-0.384828	0.130593	-0.791705	-0.596782	0.164025	0.610895	-0.774534	0.977774	0.003262	0.209638
185	3346477946													0.223569	-0.375793	-0.624428	0.124424	-0.791435	-0.598456	0.148888	0.611206	-0.777341	0.980995	0.007617	0.193884
186	3346494613													1.544437	-0.366535	-0.894621	0.119593	-0.791465	-0.599400	0.134494	0.611083	-0.780057	0.983671	0.012673	0.179528
187	3346511280													2.305372	0.037720	-0.963319	0.115262	-0.790618	-0.601363	0.120624	0.612058	-0.781559	0.985984	0.017545	0.165914
188	3346527947													2.056312	0.477979	-0.785289	0.113108	-0.788451	-0.604609	0.107334	0.614649	-0.781464	0.987768	0.023495	0.154150
189	3346544614													2.094113	0.330264	-1.064179	0.112333	-0.785582	-0.608475	0.096671	0.618086	-0.780144	0.988957	0.028814	0.145375
190	3346561281													1.877607	0.243607	-0.473393	0.113007	-0.782842	-0.611872	0.088376	0.621296	-0.778576	0.989656	0.033910	0.139395
191	3346577948													1.541232	-0.089955	-0.030626	0.114020	-0.780010	-0.615291	0.083216	0.624652	-0.776457	0.989987	0.037329	0.136132
192	3346594615													1.519549	0.030182	0.097019	0.115106	-0.777479	-0.618285	0.080329	0.627669	-0.774324	0.990100	0.039464	0.134703
193	3346611282													0.746446	-0.082930	0.179599	0.116268	-0.776049	-0.619862	0.078222	0.629311	-0.773207	0.990133	0.041412	0.133873
194	3346627949													0.250966	0.321262	0.377074	0.117745	-0.775339	-0.620473	0.076695	0.630053	-0.772756	0.990078	0.043401	0.133650
195	3346644616													0.672325	0.645475	0.343563	0.118747	-0.775373	-0.620238	0.075630	0.629906	-0.772980	0.990040	0.044881	0.133441
196	3346661283													0.470491	1.149094	0.209512	0.119918	-0.776037	-0.619182	0.074459	0.628957	-0.773867	0.989988	0.046697	0.133206
197	3346677950													-0.154077	0.859631	0.400331	0.120378	-0.777094	-0.617765	0.073672	0.627568	-0.775069	0.989991	0.047789	0.132796
198	3346694617													-0.296504	0.327727	0.403865	0.120147	-0.778915	-0.615513	0.073960	0.625304	-0.776869	0.989997	0.047815	0.132737
199	3346711284													0.107452	0.361226	0.036115	0.119572	-0.781600	-0.612212	0.074899	0.621980	-0.779443	0.989996	0.047345	0.132913
200	3346727951													0.447212	0.459048	-0.345418	0.118864	-0.784453	-0.608692	0.075850	0.618420	-0.782178	0.990009	0.046804	0.133009
201	3346744618													0.612527	0.332566	-0.400052	0.118201	-0.786398	-0.606306	0.076812	0.615998	-0.783994	0.990014	0.046097	0.133217
202	3346761285													0.508075	0.093930	-0.278155	0.117563	-0.787256	-0.605316	0.078124	0.614985	-0.784659	0.989988	0.044958	0.133803
203	3346777952													0.320748	0.039597	-0.286614	0.116974	-0.787248	-0.605440	0.079594	0.615096	-0.784425	0.989940	0.043568	0.134610
204	3346794619													0.267442	-0.000547	-0.258077	0.116463	-0.786683	-0.606272	0.081060	0.615919	-0.783628	0.989882	0.042119	0.135501
205	3346811286													0.081974	-0.055841	-0.035840	0.115902	-0.785753	-0.607585	0.082320	0.617202	-0.782486	0.989844	0.040675	0.136218
206	3346827953													-0.110458	0.095753	-0.033248	0.115265	-0.784587	-0.609210	0.083335	0.618774	-0.781137	0.989833	0.039269	0.136706
207	3346844620													-0.190306	0.091305	-0.083404	0.114509	-0.783486	-0.610768	0.084133	0.620252	-0.779878	0.989853	0.037917	0.136942
208	3346861287													-0.301916	0.108881	-0.061909	0.113617	-0.782337	-0.612405	0.084660	0.621778	-0.778604	0.989911	0.036616	0.136878
209	3346877954													-0.297200	0.086081	-0.153831	0.112590	-0.781494	-0.613670	0.085017	0.622909	-0.777661	0.989998	0.035384	0.136574
210	3346894621													-0.098165	0.047038	-0.163466	0.111584	-0.781177	-0.614257	0.085555	0.623374	-0.777229	0.990065	0.034174	0.136393
211	3346911288													0.131972	0.016787	-0.065740	0.110581	-0.781237	-0.614362	0.086380	0.623369	-0.777142	0.990106	0.032868	0.136416
212	3346927955													0.443878	0.229994	0.018932	0.109519	-0.781569	-0.614130	0.087818	0.623038	-0.777246	0.990098	0.031192	0.136871
213	3346944622													0.961601	0.550204	-0.066278	0.108290	-0.782319	-0.613392	0.090138	0.622206	-0.777647	0.990024	0.028921	0.137896
214	3346961289													1.365734	0.801375	0.097398	0.107114	-0.783300	-0.612346	0.093973	0.621108	-0.778070	0.989796	0.025798	0.140139
215	3346977956													1.875045	1.015181	0.178855	0.106054	-0.784818	-0.610584	0.099975	0.619351	-0.778723	0.989322	0.021543	0.144147
216	3346994623													2.484101	1.261209	0.457512	0.105008	-0.787208	-0.607682	0.109586	0.616498	-0.779693	0.988415	0.015281	0.151004
217	3347011290													2.985677	0.731610	-0.519098	0.104691	-0.790330	-0.603671	0.121662	0.612625	-0.780954	0.987035	0.008315	0.160289
218	3347027957													2.969068	0.011896	-0.124779	0.105866	-0.792919	-0.600060	0.135308	0.609325	-0.781291	0.985132	0.001519	0.171795
219	3347044624													1.755304	-0.971819	-0.415705	0.107990	-0.792837	-0.599790	0.151339	0.609397	-0.778288	0.982565	-0.006725	0.185796
220	3347061291													-0.108839	-1.751966	-1.012788	0.111685	-0.789050	-0.604092	0.167430	0.614146	-0.771228	0.979538	-0.015009	0.200701
221	3347077958													-1.850102	-1.754851	-1.197464	0.115696	-0.781963	-0.612493	0.182048	0.622882	-0.760839	0.976459	-0.023477	0.214420
222	3347094625													-2.884305	-1.422380	-0.818704	0.120803	-0.775078	-0.620210	0.195194	0.631135	-0.750711	0.973296	-0.030373	0.227534
223	3347111292													-2.118634	-1.610792	-0.294117	0.125718	-0.772291	-0.622706	0.207077	0.634288	-0.744848	0.970213	-0.035307	0.239665
224	3347127959													-1.454616	-1.283127	0.044925	0.129541	-0.771415	-0.623007	0.218250	0.635075	-0.740977	0.967257	-0.039984	0.250629
225	3347144626													-0.893496	-0.753148	0.220738	0.133415	-0.774052	-0.618905	0.228834	0.631673	-0.740691	0.964280	-0.042807	0.261404
226	3347161293													-0.699825	-0.342910	0.355301	0.136184	-0.781004	-0.609497	0.238837	0.622965	-0.744897	0.961463	-0.044128	0.271371
227	3347177960													-0.215130	-1.158053	-0.571030	0.139043	-0.790589	-0.596352	0.249128	0.610760	-0.751603	0.958437	-0.044063	0.281880
228	3347194627													-0.325283	-1.063745	0.005826	0.144101	-0.799770	-0.582754	0.258319	0.598883	-0.758030	0.955252	-0.041304	0.292896
229	3347211294													-0.019968	0.126725	-0.047673	0.150218	-0.807533	-0.570372	0.267156	0.588612	-0.762997	0.951873	-0.037762	0.304158
230	3347227961													2.022321	0.623163	-1.153605	0.157406	-0.812948	-0.560660	0.275046	0.581362	-0.765746	0.948458	-0.033675	0.315108
231	3347244628													2.162824	0.619785	-1.208540	0.165753	-0.814672	-0.555729	0.280864	0.579184	-0.765285	0.945326	-0.029236	0.324813
232	3347261295													-0.129877	1.221014	0.350453	0.175345	-0.812976	-0.555270	0.284238	0.581794	-0.762053	0.942583	-0.024207	0.333093
233	3347277962													-0.538436	1.201185	0.961654	0.184452	-0.811188	-0.554934	0.287556	0.584457	-0.758763	0.939834	-0.019619	0.341067
234	3347294629													-0.019479	0.492099	0.719005	0.191142	-0.811733	-0.551865	0.291228	0.583814	-0.757858	0.937364	-0.015860	0.347990
235	3347311296													-0.082467	-0.041054	0.510699	0.196023	-0.814185	-0.546515	0.293926	0.580486	-0.759370	0.935512	-0.011781	0.353099
236	3347327963													-0.165692	0.248820	0.582066	0.200202	-0.816664	-0.541275	0.296544	0.577056	-0.760965	0.933799	-0.008165	0.357705
237	3347344630													1.027756	0.809304	0.013047	0.204333	-0.817599	-0.538312	0.299546	0.575758	-0.760772	0.931944	-0.005798	0.362555
238	3347361297													0.465166	0.928345	-0.317750	0.209960	-0.815815	-0.538852	0.301090	0.578304	-0.758228	0.930194	-0.003045	0.367055
239	3347377964													-0.634934	1.251519	-0.027674	0.216369	-0.812353	-0.541541	0.301833	0.583166	-0.754198	0.928483	-0.000270	0.371374
240	3347394631													-0.430779	0.839573	0.228481	0.221234	-0.808808	-0.544872	0.302270	0.588072	-0.750203	0.927194	0.001273	0.374580
241	3347411298													-0.851483	0.605795	0.718940	0.224577	-0.806281	-0.547243	0.304083	0.591531	-0.746743	0.925796	0.001294	0.378021
242	3347427965													-0.901328	0.681304	0.158010	0.226403	-0.805121	-0.548198	0.307193	0.593110	-0.744213	0.924324	0.000089	0.381609
243	3347444632													-0.657956	0.802505	-0.026564	0.226921	-0.804555	-0.548815	0.311053	0.593873	-0.741998	0.922905	-0.002336	0.385021
244	3347461299													-0.230741	1.008688	-0.031526	0.226920	-0.803527	-0.550320	0.315167	0.595242	-0.739160	0.921508	-0.005712	0.388317
245	3347477966													-0.122275	0.901977	0.106538	0.226793	-0.801499	-0.553321	0.319530	0.597911	-0.735121	0.920036	-0.010082	0.391705
246	3347494633													-0.481741	0.492240	0.133942	0.226049	-0.798996	-0.557231	0.323981	0.601139	-0.730526	0.918661	-0.015397	0.394746
247	3347511300													-0.925143	0.092863	0.483554	0.224776	-0.796487	-0.561323	0.328191	0.604290	-0.726034	0.917478	-0.021027	0.397229
248	3347527967													-0.972021	0.013555	0.373591	0.222128	-0.794866	-0.564666	0.332115	0.606184	-0.722662	0.916711	-0.027010	0.398637
249	3347544634													-0.728222	-0.077344	0.360751	0.218436	-0.793990	-0.567331	0.335012	0.607052	-0.720593	0.916544	-0.032660	0.398598
250	3347561301													0.071723	0.023013	0.573689	0.213714	-0.793817	-0.569369	0.336013	0.607005	-0.720166	0.917290	-0.037406	0.396459
251	3347577968													0.315787	-0.092586	0.597278	0.209242	-0.793260	-0.571801	0.334304	0.607542	-0.720509	0.918944	-0.040394	0.392313
252	3347594635													-1.190487	-0.750988	0.585160	0.206473	-0.791664	-0.575010	0.331021	0.609538	-0.720339	0.920757	-0.041610	0.387910
253	3347611302													-3.330789	-1.465794	0.332265	0.204950	-0.790328	-0.577388	0.328699	0.611227	-0.719971	0.921929	-0.042228	0.385051
254	3347627969													-3.293585	-1.149126	0.424438	0.202582	-0.789271	-0.579665	0.326902	0.612489	-0.719717	0.923090	-0.043691	0.382093
255	3347644636													-2.057537	-0.719925	0.906336	0.197908	-0.789247	-0.581311	0.323514	0.612403	-0.721320	0.925295	-0.045307	0.376531
256	3347661303													-1.839391	0.060519	1.332694	0.192747	-0.789534	-0.582653	0.317344	0.612034	-0.724367	0.928516	-0.045282	0.368522
257	3347677970													-2.420877	-0.665911	1.693401	0.187027	-0.790592	-0.583083	0.308880	0.610779	-0.729070	0.932531	-0.043747	0.358430
258	3347694637													-2.788791	-1.537708	1.786803	0.180870	-0.791961	-0.583166	0.298777	0.609168	-0.734606	0.937026	-0.041368	0.346800
259	3347711304													-2.646346	-1.784954	1.278785	0.174112	-0.794204	-0.582172	0.287442	0.606445	-0.741351	0.941840	-0.038263	0.333877
260	3347727971													-1.644001	-1.310799	0.588584	0.166293	-0.798023	-0.579229	0.274198	0.601664	-0.750211	0.947186	-0.034069	0.318869
261	3347744638													-0.635379	-0.718561	-0.327627	0.158906	-0.802184	-0.575543	0.258950	0.596406	-0.759767	0.952730	-0.028305	0.302498
262	3347761305													0.115437	-0.931702	-1.214185	0.153453	-0.805316	-0.572642	0.241665	0.592493	-0.768473	0.958149	-0.020463	0.285537
263	3347777972													0.697115	0.002752	-1.388429	0.149711	-0.806100	-0.572529	0.223493	0.591658	-0.774592	0.963139	-0.011992	0.268735
264	3347794639													0.596904	-0.370825	-1.464233	0.146506	-0.806343	-0.573016	0.204349	0.591442	-0.780024	0.967873	-0.002817	0.251425
265	3347811306													-0.452536	-0.337818	-1.298003	0.143146	-0.806783	-0.573246	0.185141	0.590815	-0.785277	0.972230	0.006278	0.233941
266	3347827973													0.318467	0.602910	-0.817995	0.138284	-0.807991	-0.572737	0.166722	0.589032	-0.790725	0.976259	0.013857	0.216163
267	3347844640													1.252932	1.016924	-1.266683	0.132168	-0.810691	-0.570362	0.150567	0.585152	-0.796823	0.979725	0.019437	0.199401
268	3347861307													2.164170	1.735658	-1.312070	0.126534	-0.811297	-0.570777	0.136270	0.584163	-0.800115	0.982558	0.023462	0.184472
269	3347877974													3.283788	1.735417	-1.648000	0.122210	-0.809500	-0.574260	0.123192	0.586494	-0.800530	0.984829	0.027089	0.171399
270	3347894641													3.837024	0.539956	-1.687121	0.120664	-0.803655	-0.582733	0.110164	0.594237	-0.796709	0.986562	0.031938	0.160237
271	3347911308													2.464538	-0.460323	-0.326488	0.121002	-0.795505	-0.593743	0.100350	0.604877	-0.789971	0.987567	0.036006	0.153020
272	3347927975													1.416495	-1.417412	1.084878	0.120728	-0.789201	-0.602152	0.096346	0.613040	-0.784155	0.987999	0.036655	0.150047
273	3347944642													0.674516	-1.121647	0.323980	0.120250	-0.785782	-0.606701	0.095035	0.617441	-0.780855	0.988184	0.036240	0.148924
274	3347961309													0.446503	0.212859	-0.027424	0.120605	-0.784828	-0.607865	0.093038	0.618576	-0.780197	0.988331	0.037541	0.147622
275	3347977976													0.665836	0.889401	0.224069	0.121590	-0.784912	-0.607560	0.090402	0.618315	-0.780714	0.988455	0.040002	0.146139
276	3347994643													0.435681	0.882490	0.402453	0.122571	-0.784933	-0.607336	0.087840	0.618129	-0.781154	0.988565	0.042398	0.144713
277	3348011310													0.125824	0.693456	0.593980	0.123259	-0.785425	-0.606559	0.086072	0.617378	-0.781944	0.988635	0.044174	0.143700
278	3348027977													-0.009501	0.696395	0.255706	0.123378	-0.787552	-0.603771	0.085356	0.614587	-0.784218	0.988682	0.045220	0.143049
279	3348044644													0.016939	0.458687	-0.087143	0.123316	-0.791567	-0.598511	0.085432	0.609343	-0.788291	0.988683	0.046077	0.142767
280	3348061311													0.185732	0.367686	-0.321372	0.123238	-0.796704	-0.591672	0.086114	0.602553	-0.793419	0.988634	0.046828	0.142865
281	3348077978													0.563956	0.548627	-0.445547	0.123116	-0.801900	-0.584636	0.086878	0.595565	-0.798595	0.988582	0.047528	0.142991
282	3348094645													0.824668	0.278572	-0.421515	0.122985	-0.806155	-0.578782	0.087600	0.589752	-0.802819	0.988535	0.048034	0.143150
283	3348111312													0.892774	-0.008753	-0.315497	0.123037	-0.808429	-0.575591	0.088444	0.586622	-0.805017	0.988453	0.048139	0.143677
284	3348127979													0.908853	-0.229404	-0.236851	0.123276	-0.808807	-0.575008	0.089044	0.586105	-0.805327	0.988370	0.048076	0.144272
285	3348144646													0.569626	-0.478471	-0.055607	0.123837	-0.807744	-0.576381	0.089277	0.587566	-0.804236	0.988278	0.048137	0.144876
286	3348161313													0.046120	-0.390906	0.005617	0.124425	-0.805587	-0.579265	0.089334	0.590526	-0.802059	0.988199	0.048048	0.145443
287	3348177980													-0.167509	-0.071933	-0.010790	0.125088	-0.803052	-0.582632	0.089250	0.593972	-0.799520	0.988123	0.048010	0.145971
288	3348194647													-0.065732	0.346154	0.018326	0.125712	-0.800256	-0.586334	0.089083	0.597741	-0.796725	0.988059	0.047926	0.146432
289	3348211314													0.251933	0.844981	-0.046497	0.126153	-0.797422	-0.590087	0.088895	0.601534	-0.793886	0.988020	0.047695	0.146772
290	3348227981													0.484298	0.973051	0.014253	0.126419	-0.795070	-0.593197	0.088922	0.604670	-0.791497	0.987983	0.047312	0.147141
291	3348244648													0.984174	0.582598	0.094481	0.126713	-0.793593	-0.595108	0.089848	0.606660	-0.789868	0.987862	0.046617	0.148174
292	3348261315													1.560299	0.551386	0.138133	0.126571	-0.793470	-0.595303	0.092111	0.606938	-0.789394	0.987672	0.045080	0.149909
293	3348277982													1.875507	0.403210	0.120143	0.126290	-0.793248	-0.595658	0.095627	0.607404	-0.788616	0.987373	0.042633	0.152565
294	3348294649													2.003410	0.583229	0.036222	0.125988	-0.791634	-0.597865	0.100987	0.609771	-0.786118	0.986878	0.038665	0.156768
295	3348311316													1.909842	0.986058	0.030891	0.126049	-0.788319	-0.602216	0.108212	0.614362	-0.781568	0.986104	0.033349	0.162745
296	3348327983													1.526751	1.334094	0.084392	0.126239	-0.783813	-0.608031	0.117516	0.620435	-0.775404	0.985015	0.026433	0.170434
297	3348344650													1.113797	1.587338	0.027625	0.126804	-0.779573	-0.613341	0.128254	0.626028	-0.769182	0.983601	0.018871	0.179366
298	3348361317													0.675250	0.992806	0.074025	0.127585	-0.776434	-0.617149	0.141865	0.630122	-0.763427	0.981629	0.009851	0.190543
299	3348377984													0.240235	0.454734	-0.623963	0.128301	-0.775056	-0.618731	0.156796	0.631893	-0.759030	0.979262	0.000370	0.202598
300	3348394651													-0.773086	-1.018607	-1.128348	0.129894	-0.774995	-0.618475	0.171091	0.631922	-0.755912	0.976655	-0.007627	0.214678
301	3348411318													-2.161998	-1.589895	-0.919760	0.131469	-0.775289	-0.617772	0.183919	0.631438	-0.753299	0.974110	-0.014585	0.225605
302	3348427985													-2.135545	-1.784778	-0.627799	0.133453	-0.775614	-0.616939	0.195402	0.630879	-0.750872	0.971601	-0.020345	0.235749
303	3348444652													-1.108768	-1.778879	-0.523907	0.136072	-0.775640	-0.616333	0.206154	0.630670	-0.748169	0.969012	-0.025255	0.245717
304	3348461319													0.179268	-0.905498	-0.336168	0.139338	-0.773420	-0.618390	0.215664	0.633194	-0.743340	0.966475	-0.029789	0.255026
305	3348477986													0.404443	-1.006321	0.014865	0.143707	-0.770692	-0.620792	0.224152	0.636349	-0.738116	0.963900	-0.033079	0.264200
306	3348494653													-0.537421	-2.142259	0.309019	0.149180	-0.770382	-0.619884	0.232717	0.636644	-0.735206	0.961035	-0.034579	0.274255
307	3348511320													-1.139702	-1.897574	0.517780	0.154721	-0.773659	-0.614421	0.241723	0.632652	-0.735746	0.957931	-0.034684	0.284896
308	3348527987													-0.094750	-1.356111	0.234324	0.158538	-0.780708	-0.604451	0.249983	0.623985	-0.740372	0.955183	-0.033726	0.294089
309	3348544654													1.218153	-0.113888	0.165596	0.162291	-0.788616	-0.593082	0.255728	0.614129	-0.746625	0.953029	-0.030497	0.301339
310	3348561321													1.468487	0.520622	-0.762039	0.167556	-0.793547	-0.584985	0.259539	0.607949	-0.750359	0.951086	-0.026099	0.307822
311	3348577988													0.415978	0.783393	-1.411706	0.175504	-0.794539	-0.581297	0.263488	0.606831	-0.749887	0.948563	-0.021556	0.315853
312	3348594655													-0.521297	0.435648	-0.777586	0.184590	-0.793074	-0.580483	0.267638	0.608873	-0.746755	0.945673	-0.017516	0.324649
313	3348611322													-0.559392	0.237417	0.604166	0.193117	-0.791946	-0.579247	0.271446	0.610441	-0.744096	0.942880	-0.013537	0.332857
314	3348627989													-0.130053	-0.188215	1.365324	0.200369	-0.793193	-0.575063	0.275299	0.608900	-0.743943	0.940246	-0.009250	0.340370
315	3348644656													-0.274028	-0.577110	0.648841	0.206057	-0.796439	-0.568529	0.279937	0.604694	-0.745641	0.937644	-0.005508	0.347555
316	3348661323													-0.271668	0.613367	-0.036725	0.211848	-0.799125	-0.562601	0.284561	0.601162	-0.746746	0.934957	-0.001897	0.354755
317	3348677990													0.271300	1.377256	-0.606002	0.218192	-0.800072	-0.558817	0.288552	0.599901	-0.746228	0.932271	0.001574	0.361756
318	3348694657													0.218986	1.341964	0.074073	0.225128	-0.798378	-0.558489	0.292306	0.602144	-0.742954	0.929449	0.004010	0.368930
319	3348711324													-0.341779	1.197645	-0.055987	0.231552	-0.795868	-0.559444	0.294972	0.605439	-0.739213	0.927025	0.006146	0.374949
320	3348727991													-0.585527	0.956482	0.235557	0.236240	-0.793899	-0.560281	0.297562	0.608007	-0.736060	0.925012	0.007168	0.379869
321	3348744658													-0.376139	0.689153	0.544420	0.239826	-0.792112	-0.561285	0.300290	0.610332	-0.733022	0.923206	0.007250	0.384237
322	3348761325													-0.629928	0.189162	0.387170	0.242425	-0.791112	-0.561580	0.303607	0.611635	-0.730565	0.921441	0.006607	0.388463
323	3348777992													-0.734097	0.546955	0.347358	0.243877	-0.790463	-0.561866	0.306885	0.612488	-0.728478	0.919971	0.005231	0.391952
324	3348794659													-0.774053	0.344617	0.220799	0.244826	-0.790157	-0.561883	0.310003	0.612893	-0.726815	0.918672	0.003758	0.395003
325	3348811326													-0.393615	0.310430	0.128533	0.244557	-0.790545	-0.561455	0.312527	0.612401	-0.726149	0.917888	0.002115	0.396833
326	3348827993													-0.538566	-0.235653	0.391023	0.244393	-0.790781	-0.561193	0.314073	0.612098	-0.725737	0.917404	0.001110	0.397955
327	3348844660													-0.772106	-0.178216	0.478635	0.244029	-0.790563	-0.561658	0.315085	0.612381	-0.725060	0.917154	-0.000035	0.398533
328	3348861327													-0.676787	-0.332442	0.052238	0.243778	-0.790232	-0.562233	0.315987	0.612807	-0.724306	0.916911	-0.001089	0.399091
329	3348877994													-0.685485	-0.107364	-0.039138	0.243082	-0.790209	-0.562566	0.316204	0.612835	-0.724189	0.917020	-0.001848	0.398836
330	3348894661													-0.920149	-0.335583	0.443993	0.242221	-0.790116	-0.563068	0.315559	0.612953	-0.724369	0.917470	-0.002224	0.397798
331	3348911328													-1.029737	-0.340040	0.653771	0.240599	-0.790564	-0.563135	0.314579	0.612374	-0.725285	0.918233	-0.002648	0.396031
332	3348927995													-0.945798	-0.102350	0.468202	0.238601	-0.791611	-0.562514	0.313230	0.611020	-0.727009	0.919215	-0.002732	0.393746
333	3348944662													-0.838077	0.094207	0.173893	0.236447	-0.792616	-0.562008	0.311262	0.609716	-0.728946	0.920440	-0.002574	0.390877
334	3348961329													-0.844726	0.194407	-0.006622	0.234254	-0.793287	-0.561979	0.308856	0.608843	-0.730697	0.921810	-0.002402	0.387636
335	3348977996													-0.915478	0.038079	-0.005684	0.231744	-0.793522	-0.562688	0.306320	0.608536	-0.732019	0.923289	-0.002722	0.384096
336	3348994663													-0.691934	0.150381	0.093606	0.228607	-0.793732	-0.563674	0.303715	0.608257	-0.733335	0.924930	-0.003551	0.380120
337	3349011330													-0.628924	0.088039	0.216119	0.224875	-0.793934	-0.564889	0.300654	0.607986	-0.734820	0.926843	-0.004594	0.375420
338	3349027997													-0.811403	0.213748	0.416669	0.220626	-0.794219	-0.566163	0.297299	0.607604	-0.736499	0.928944	-0.005829	0.370174
339	3349044664													-0.647425	0.056324	0.414686	0.215899	-0.794275	-0.567903	0.293641	0.607513	-0.738040	0.931216	-0.007418	0.364393
340	3349061331													-0.692909	0.109161	0.428847	0.210233	-0.794746	-0.569369	0.289786	0.606869	-0.740090	0.933716	-0.009404	0.357890
341	3349077998													-1.049612	-0.332790	0.481677	0.204260	-0.795552	-0.570417	0.285495	0.605783	-0.742644	0.936360	-0.011159	0.350863
342	3349094665													-1.209786	-0.623333	0.291055	0.198015	-0.796938	-0.570684	0.281013	0.603928	-0.745857	0.939054	-0.012679	0.343536
343	3349111332													-1.004202	-0.554089	0.315942	0.191366	-0.798834	-0.570302	0.276240	0.601387	-0.749683	0.941844	-0.014076	0.335755
344	3349127999													-0.660658	-0.243303	0.248935	0.184707	-0.800717	-0.569856	0.270959	0.598850	-0.753631	0.944703	-0.015207	0.327573
345	3349144666													-0.296548	0.019158	0.098272	0.178374	-0.802366	-0.569554	0.265412	0.596616	-0.757368	0.947491	-0.016071	0.319378
346	3349161333													-0.214496	-0.027083	0.102438	0.172412	-0.803797	-0.569372	0.259606	0.594671	-0.760901	0.950199	-0.016624	0.311199
347	3349178000													-0.268687	0.068655	0.203755	0.166436	-0.805046	-0.569385	0.253059	0.592972	-0.764425	0.953027	-0.016860	0.302416
348	3349194667													-0.457106	-0.061272	0.043374	0.160480	-0.806751	-0.568681	0.245963	0.590660	-0.768520	0.955902	-0.016542	0.293220
349	3349211334													-0.469178	0.284393	-0.071514	0.154044	-0.808627	-0.567797	0.238275	0.588098	-0.772894	0.958903	-0.016232	0.283268
350	3349228001													-0.200087	0.291561	-0.399920	0.147193	-0.811296	-0.565803	0.229945	0.584429	-0.778183	0.962008	-0.015560	0.272577
351	3349244668													0.127899	0.092566	-0.711063	0.140456	-0.813418	-0.564467	0.221198	0.581488	-0.782907	0.965062	-0.014895	0.261600
352	3349261335													0.157806	-0.000045	-0.639894	0.133707	-0.815310	-0.563375	0.211262	0.578862	-0.787583	0.968241	-0.013714	0.249642
353	3349278002													0.339474	-0.143050	-0.340448	0.127174	-0.817414	-0.561838	0.200733	0.575926	-0.792474	0.971356	-0.011997	0.237324
354	3349294669													1.432625	-0.103736	-0.215083	0.120779	-0.818884	-0.561107	0.190436	0.573860	-0.796504	0.974241	-0.010654	0.225256
355	3349311336													1.456854	0.194969	-0.546022	0.114851	-0.819288	-0.561762	0.179714	0.573310	-0.799386	0.976991	-0.009146	0.213083
356	3349328003													1.383593	-0.071097	-0.602612	0.110172	-0.818411	-0.563973	0.168413	0.574594	-0.800924	0.979540	-0.006741	0.201135
357	3349344670													0.910866	-0.159678	-0.363364	0.106396	-0.817482	-0.566042	0.158716	0.575937	-0.801939	0.981575	-0.004516	0.191025
358	3349361337													1.106531	-0.367163	-0.513364	0.103492	-0.816889	-0.567435	0.151948	0.576787	-0.802639	0.982955	-0.003154	0.183818
359	3349378004													1.159610	-0.116101	-0.478498	0.101701	-0.817167	-0.567359	0.146929	0.576399	-0.803850	0.983905	-0.001609	0.178686
360	3349394671													1.550354	-0.057957	-0.579916	0.101176	-0.817709	-0.566670	0.142363	0.575631	-0.805221	0.984630	0.000797	0.174652
361	3349411338													1.578207	0.398365	0.140175	0.100558	-0.817554	-0.567004	0.138745	0.575847	-0.805699	0.985210	0.002351	0.171338
362	3349428005													0.929217	0.609295	0.023644	0.099630	-0.817607	-0.567092	0.136719	0.575770	-0.806100	0.985587	0.002780	0.169146
363	3349444672													0.549284	0.588053	-0.090407	0.099006	-0.817611	-0.567196	0.135725	0.575765	-0.806271	0.985787	0.002843	0.167974
364	3349461339													0.031125	0.294373	-0.014826	0.098116	-0.817909	-0.566920	0.135151	0.575343	-0.806669	0.985955	0.002527	0.166991
365	3349478006													-0.565919	-0.052774	0.222103	0.097259	-0.818318	-0.566477	0.134632	0.574761	-0.807171	0.986111	0.002239	0.166072
366	3349494673													-0.473632	-0.159774	0.122264	0.096173	-0.819372	-0.565138	0.133972	0.573259	-0.808347	0.986307	0.002028	0.164905
367	3349511340													0.047802	-0.136596	0.008533	0.094989	-0.820894	-0.563126	0.133045	0.571078	-0.810043	0.986547	0.002024	0.163462
368	3349528007													0.246688	-0.108099	-0.092975	0.094042	-0.822286	-0.561250	0.131575	0.569069	-0.811695	0.986835	0.002487	0.161709
369	3349544674													0.155635	-0.124530	-0.026495	0.093023	-0.822812	-0.560649	0.129585	0.568306	-0.812549	0.987195	0.002934	0.159489
370	3349561341													0.095574	-0.109341	-0.069730	0.091992	-0.822849	-0.560765	0.127644	0.568251	-0.812895	0.987545	0.003202	0.157306
371	3349578008													0.075371	-0.118017	-0.192502	0.091199	-0.822723	-0.561078	0.125701	0.568430	-0.813072	0.987867	0.003623	0.155258
372	3349594675													0.088318	0.006752	-0.111690	0.090317	-0.822455	-0.561614	0.123745	0.568816	-0.813102	0.988195	0.003940	0.153149
373	3349611342													-0.010476	-0.032800	-0.057582	0.089439	-0.822111	-0.562257	0.121776	0.569311	-0.813053	0.988520	0.004249	0.151032
374	3349628009													-0.070789	0.003555	-0.031027	0.088485	-0.822193	-0.562289	0.119845	0.569190	-0.813425	0.988842	0.004588	0.148900
375	3349644676													-0.167592	0.115464	-0.047907	0.087543	-0.822715	-0.561672	0.117728	0.568430	-0.814265	0.989180	0.005158	0.146618
376	3349661343													-0.066040	-0.041311	-0.066586	0.086586	-0.823700	-0.560376	0.115576	0.566996	-0.815572	0.989518	0.005851	0.144294
377	3349678010													0.132172	0.016507	-0.010343	0.085528	-0.824934	-0.558721	0.113566	0.565193	-0.817105	0.989842	0.006434	0.142024
378	3349694677													0.449049	0.032870	-0.068992	0.084522	-0.826234	-0.556950	0.111900	0.563285	-0.818650	0.990118	0.006871	0.140065
379	3349711344													0.570679	0.188174	-0.093031	0.083549	-0.827207	-0.555651	0.110539	0.561853	-0.819818	0.990354	0.007074	0.138380
380	3349728011													0.661416	0.260854	-0.141228	0.082609	-0.827868	-0.554806	0.109658	0.560879	-0.820603	0.990531	0.006950	0.137116
381	3349744678													0.548521	0.241862	-0.135738	0.081691	-0.828354	-0.554216	0.109231	0.560166	-0.821147	0.990654	0.006543	0.136242
382	3349761345													0.589707	0.150961	-0.078411	0.080892	-0.828804	-0.553661	0.109484	0.559508	-0.821562	0.990692	0.005841	0.136001
