// Start Time: Unknown
// Update Rate: 100.0Hz
//Filter Profile: human (46.1)
// Option Flags: AHS Disabled ICC Disabled
// Firmware Version: 4.0.2
PacketCounter	SampleTimeFine	Year	Month	Day	Second	UTC_Nano	UTC_Year	UTC_Month	UTC_Day	UTC_Hour	UTC_Minute	UTC_Second	UTC_Valid	Acc_X	Acc_Y	Acc_Z	Mat[1][1]	Mat[1][2]	Mat[1][3]	Mat[2][1]	Mat[2][2]	Mat[2][3]	Mat[3][1]	Mat[3][2]	Mat[3][3]
1	3343444552													0.012660	0.013815	0.077197	0.073208	-0.979416	-0.188107	0.038196	0.191229	-0.980802	0.996585	0.064618	0.051409
2	3343461219													-0.016172	-0.010939	0.067403	0.073230	-0.979460	-0.187873	0.038219	0.190996	-0.980846	0.996582	0.064647	0.051421
3	3343477886													-0.022386	-0.010553	0.063201	0.073272	-0.979528	-0.187500	0.038240	0.190627	-0.980917	0.996579	0.064703	0.051425
4	3343494553													0.033076	0.011999	0.063936	0.073203	-0.979606	-0.187118	0.038235	0.190240	-0.980993	0.996584	0.064657	0.051382
5	3343511220													0.064309	0.050620	0.070436	0.073277	-0.979706	-0.186565	0.038225	0.189690	-0.981100	0.996579	0.064760	0.051349
6	3343527887													0.052655	0.019529	0.098183	0.073338	-0.979755	-0.186283	0.038166	0.189406	-0.981157	0.996577	0.064846	0.051284
7	3343544554													0.035325	0.037243	0.096105	0.073283	-0.979814	-0.185996	0.038127	0.189114	-0.981215	0.996582	0.064815	0.051216
8	3343561221													0.023788	0.020744	0.090692	0.073285	-0.979851	-0.185799	0.038091	0.188914	-0.981255	0.996583	0.064834	0.051168
9	3343577888													0.047288	0.051146	0.094169	0.073374	-0.979873	-0.185646	0.038076	0.188764	-0.981284	0.996577	0.064932	0.051160
10	3343594555													0.051689	0.057045	0.089870	0.073558	-0.979902	-0.185424	0.038097	0.188553	-0.981324	0.996563	0.065121	0.051201
11	3343611222													0.057067	0.046296	0.077122	0.073546	-0.979953	-0.185156	0.038110	0.188285	-0.981375	0.996563	0.065120	0.051194
12	3343627889													0.067421	0.031887	0.075832	0.073515	-0.980003	-0.184906	0.038105	0.188033	-0.981423	0.996566	0.065104	0.051167
13	3343644556													0.050156	-0.007492	0.066375	0.073439	-0.980039	-0.184742	0.038095	0.187864	-0.981456	0.996572	0.065040	0.051132
14	3343661223													0.057550	0.011921	0.057161	0.073450	-0.980055	-0.184654	0.038035	0.187772	-0.981476	0.996573	0.065066	0.051069
15	3343677890													0.025124	0.033568	0.096129	0.073398	-0.980050	-0.184703	0.038011	0.187817	-0.981468	0.996578	0.065017	0.051038
16	3343694557													-0.000116	0.041963	0.074473	0.073489	-0.980079	-0.184512	0.038028	0.187631	-0.981503	0.996571	0.065113	0.051059
17	3343711224													0.003261	0.023092	0.081511	0.073614	-0.980164	-0.184007	0.038092	0.187137	-0.981595	0.996559	0.065250	0.051112
18	3343727891													0.000313	0.001960	0.071102	0.073653	-0.980260	-0.183481	0.038158	0.186616	-0.981692	0.996554	0.065303	0.051149
19	3343744558													0.019490	0.002200	0.077069	0.073729	-0.980293	-0.183273	0.038197	0.186414	-0.981728	0.996547	0.065381	0.051189
20	3343761225													0.023817	-0.006280	0.077654	0.073699	-0.980295	-0.183276	0.038233	0.186418	-0.981726	0.996547	0.065345	0.051218
21	3343777892													0.023138	0.031541	0.066994	0.073736	-0.980309	-0.183185	0.038248	0.186329	-0.981743	0.996544	0.065383	0.051234
22	3343794559													0.035672	0.004530	0.071731	0.073786	-0.980351	-0.182941	0.038242	0.186087	-0.981789	0.996541	0.065446	0.051221
23	3343811226													0.045618	0.023336	0.074821	0.073741	-0.980406	-0.182664	0.038231	0.185807	-0.981842	0.996544	0.065419	0.051183
24	3343827893													0.019093	0.032650	0.083606	0.073818	-0.980441	-0.182446	0.038220	0.185592	-0.981883	0.996539	0.065508	0.051173
25	3343844560													-0.012902	0.038213	0.075923	0.073916	-0.980446	-0.182380	0.038227	0.185531	-0.981894	0.996532	0.065606	0.051194
26	3343861227													0.037352	0.050201	0.080941	0.073992	-0.980450	-0.182329	0.038251	0.185485	-0.981902	0.996525	0.065679	0.051228
27	3343877894													0.052618	0.045432	0.065220	0.073920	-0.980481	-0.182188	0.038283	0.185343	-0.981928	0.996529	0.065609	0.051236
28	3343894561													0.052320	0.069783	0.072645	0.073868	-0.980501	-0.182105	0.038294	0.185258	-0.981944	0.996533	0.065560	0.051232
29	3343911228													0.054677	0.053629	0.092651	0.073877	-0.980497	-0.182119	0.038294	0.185273	-0.981941	0.996532	0.065569	0.051234
30	3343927895													0.035816	0.033221	0.076141	0.073940	-0.980496	-0.182100	0.038317	0.185258	-0.981943	0.996526	0.065627	0.051268
31	3343944562													0.091703	0.019411	0.085227	0.073966	-0.980493	-0.182108	0.038339	0.185269	-0.981940	0.996524	0.065648	0.051294
32	3343961229													0.105322	0.042163	0.079101	0.073994	-0.980461	-0.182267	0.038336	0.185430	-0.981909	0.996522	0.065668	0.051308
33	3343977896													0.070440	0.073626	0.070654	0.073970	-0.980402	-0.182593	0.038254	0.185749	-0.981852	0.996526	0.065643	0.051244
34	3343994563													0.029555	0.111871	0.082960	0.073951	-0.980379	-0.182726	0.038187	0.185877	-0.981831	0.996530	0.065630	0.051183
35	3344011230													0.017729	0.086502	0.088599	0.073957	-0.980365	-0.182796	0.038147	0.185945	-0.981819	0.996532	0.065639	0.051150
36	3344027897													0.069255	0.037455	0.075768	0.073887	-0.980352	-0.182898	0.038118	0.186041	-0.981802	0.996538	0.065570	0.051115
37	3344044564													0.096636	0.037801	0.079224	0.073906	-0.980308	-0.183121	0.038066	0.186262	-0.981762	0.996538	0.065587	0.051082
38	3344061231													0.067713	0.025959	0.093538	0.073934	-0.980229	-0.183537	0.037984	0.186675	-0.981687	0.996540	0.065608	0.051034
39	3344077898													0.043497	0.081196	0.100826	0.073982	-0.980140	-0.183989	0.037890	0.187124	-0.981605	0.996539	0.065650	0.050981
40	3344094565													0.018311	0.049297	0.086019	0.073962	-0.980035	-0.184555	0.037804	0.187684	-0.981502	0.996544	0.065617	0.050931
41	3344111232													0.028202	0.021094	0.084027	0.073895	-0.979941	-0.185080	0.037730	0.188201	-0.981405	0.996552	0.065538	0.050880
42	3344127899													0.022069	0.003821	0.087146	0.073862	-0.979848	-0.185585	0.037656	0.188701	-0.981312	0.996557	0.065494	0.050835
43	3344144566													0.047631	0.024567	0.064729	0.073864	-0.979732	-0.186199	0.037581	0.189311	-0.981198	0.996560	0.065478	0.050802
44	3344161233													0.022370	0.025871	0.055371	0.073832	-0.979610	-0.186849	0.037450	0.189951	-0.981079	0.996567	0.065438	0.050711
45	3344177900													0.006329	0.044270	0.087040	0.073921	-0.979481	-0.187491	0.037352	0.190592	-0.980958	0.996564	0.065510	0.050674
46	3344194567													0.003688	0.006884	0.093141	0.073939	-0.979353	-0.188150	0.037348	0.191253	-0.980830	0.996563	0.065495	0.050718
47	3344211234													0.017204	0.081042	0.102641	0.073931	-0.979209	-0.188901	0.037411	0.192009	-0.980680	0.996561	0.065436	0.050829
48	3344227901													0.013671	0.078787	0.075042	0.073782	-0.979113	-0.189456	0.037500	0.192563	-0.980568	0.996569	0.065244	0.050925
49	3344244568													-0.010159	-0.020244	0.052031	0.073704	-0.979010	-0.190019	0.037558	0.193127	-0.980455	0.996573	0.065127	0.051004
50	3344261235													-0.013596	-0.003319	0.103033	0.073598	-0.978884	-0.190707	0.037584	0.193812	-0.980319	0.996580	0.064982	0.051054
51	3344277902													-0.005051	0.052946	0.108582	0.073449	-0.978796	-0.191219	0.037643	0.194321	-0.980216	0.996588	0.064798	0.051117
52	3344294569													0.032881	0.037822	0.052823	0.073340	-0.978661	-0.191948	0.037648	0.195046	-0.980071	0.996596	0.064652	0.051149
53	3344311236													-0.014098	0.075109	0.053576	0.073256	-0.978542	-0.192587	0.037623	0.195680	-0.979946	0.996603	0.064541	0.051151
54	3344327903													-0.039113	0.039227	0.058296	0.073288	-0.978454	-0.193020	0.037651	0.196117	-0.979857	0.996600	0.064545	0.051212
55	3344344570													-0.034569	-0.004261	0.110551	0.073279	-0.978385	-0.193372	0.037681	0.196471	-0.979785	0.996599	0.064511	0.051264
56	3344361237													0.031851	0.037861	0.062259	0.073153	-0.978314	-0.193781	0.037665	0.196873	-0.979705	0.996609	0.064369	0.051250
57	3344377904													0.037946	0.103634	0.049859	0.073122	-0.978283	-0.193947	0.037652	0.197037	-0.979673	0.996612	0.064333	0.051242
58	3344394571													-0.003946	-0.020803	0.070428	0.073229	-0.978237	-0.194137	0.037621	0.197230	-0.979635	0.996605	0.064434	0.051245
59	3344411238													-0.046812	-0.031787	0.133447	0.073184	-0.978167	-0.194511	0.037548	0.197598	-0.979564	0.996611	0.064385	0.051189
60	3344427905													-0.030176	0.026028	0.132882	0.072869	-0.978140	-0.194763	0.037517	0.197832	-0.979518	0.996636	0.064070	0.051113
61	3344444572													0.000002	0.076221	0.054614	0.072624	-0.978105	-0.195028	0.037512	0.198085	-0.979467	0.996654	0.063817	0.051077
62	3344461239													0.009658	0.117853	0.074224	0.072533	-0.978025	-0.195466	0.037506	0.198518	-0.979379	0.996661	0.063706	0.051081
63	3344477906													-0.028136	0.054754	0.088191	0.072440	-0.978017	-0.195539	0.037559	0.198590	-0.979363	0.996665	0.063600	0.051119
64	3344494573													-0.006370	-0.064826	0.071729	0.072321	-0.978030	-0.195517	0.037649	0.198568	-0.979364	0.996671	0.063467	0.051183
65	3344511240													0.076474	-0.012959	0.072158	0.072196	-0.978036	-0.195532	0.037661	0.198577	-0.979361	0.996679	0.063342	0.051171
66	3344527907													0.057055	0.061148	0.044901	0.072150	-0.978014	-0.195662	0.037628	0.198702	-0.979337	0.996684	0.063297	0.051138
67	3344544574													0.018770	0.056686	0.083851	0.072126	-0.978021	-0.195636	0.037634	0.198676	-0.979342	0.996685	0.063274	0.051136
68	3344561241													-0.011873	0.025992	0.117848	0.072185	-0.978027	-0.195583	0.037650	0.198627	-0.979352	0.996680	0.063331	0.051160
69	3344577908													0.017172	0.016490	0.088917	0.072108	-0.978033	-0.195583	0.037665	0.198624	-0.979352	0.996685	0.063252	0.051160
70	3344594575													0.019129	0.032629	0.051333	0.072082	-0.978009	-0.195712	0.037654	0.198751	-0.979326	0.996688	0.063222	0.051152
71	3344611242													0.062888	0.049062	0.055461	0.072130	-0.977963	-0.195924	0.037600	0.198962	-0.979286	0.996686	0.063270	0.051123
72	3344627909													-0.021984	0.005189	0.085310	0.072206	-0.977949	-0.195963	0.037576	0.199003	-0.979278	0.996682	0.063346	0.051117
73	3344644576													-0.021439	0.000151	0.106992	0.072179	-0.977923	-0.196106	0.037565	0.199145	-0.979250	0.996684	0.063315	0.051110
74	3344661243													-0.023670	0.018683	0.060692	0.072111	-0.977897	-0.196259	0.037526	0.199292	-0.979221	0.996690	0.063247	0.051068
75	3344677910													-0.004315	0.033572	0.072133	0.072197	-0.977914	-0.196144	0.037497	0.199179	-0.979245	0.996685	0.063344	0.051050
76	3344694577													-0.039283	-0.044502	0.096225	0.072257	-0.977946	-0.195958	0.037427	0.198992	-0.979286	0.996684	0.063427	0.050980
77	3344711244													-0.016234	-0.002294	0.085180	0.072164	-0.977971	-0.195869	0.037355	0.198893	-0.979309	0.996693	0.063354	0.050885
78	3344727911													0.001115	0.046290	0.057837	0.072065	-0.978008	-0.195721	0.037251	0.198733	-0.979345	0.996704	0.063286	0.050753
79	3344744578													-0.010795	0.038869	0.073337	0.072035	-0.978067	-0.195438	0.037108	0.198440	-0.979410	0.996712	0.063300	0.050589
80	3344761245													-0.042687	0.007818	0.074952	0.072032	-0.978130	-0.195125	0.036941	0.198116	-0.979482	0.996718	0.063345	0.050404
81	3344777912													-0.030993	0.049516	0.090148	0.072159	-0.978240	-0.194522	0.036770	0.197507	-0.979612	0.996715	0.063535	0.050222
82	3344794579													0.006706	0.009502	0.106931	0.072243	-0.978352	-0.193931	0.036593	0.196908	-0.979739	0.996716	0.063683	0.050026
83	3344811246													0.024341	0.103337	0.063532	0.072217	-0.978419	-0.193600	0.036355	0.196560	-0.979818	0.996726	0.063721	0.049766
84	3344827913													0.022679	0.093165	0.063094	0.072303	-0.978496	-0.193176	0.036079	0.196122	-0.979916	0.996730	0.063881	0.049483
85	3344844580													0.011766	0.015491	0.094776	0.072137	-0.978619	-0.192617	0.035736	0.195533	-0.980046	0.996754	0.063814	0.049077
86	3344861247													0.059412	0.043952	0.080135	0.071950	-0.978741	-0.192067	0.035318	0.194945	-0.980178	0.996783	0.063741	0.048594
87	3344877914													0.060130	0.075140	0.076892	0.071762	-0.978867	-0.191491	0.034858	0.194330	-0.980317	0.996812	0.063675	0.048067
88	3344894581													0.070331	0.086195	0.078691	0.071547	-0.979031	-0.190733	0.034309	0.193525	-0.980495	0.996847	0.063608	0.047436
89	3344911248													0.060778	0.044924	0.097184	0.071282	-0.979221	-0.189853	0.033752	0.192596	-0.980697	0.996885	0.063498	0.046780
90	3344927915													-0.005413	0.088595	0.085415	0.070954	-0.979451	-0.188789	0.033187	0.191479	-0.980935	0.996927	0.063336	0.046091
91	3344944582													-0.037819	0.074816	0.097313	0.070697	-0.979664	-0.187778	0.032621	0.190419	-0.981161	0.996964	0.063239	0.045420
92	3344961249													-0.030647	0.029811	0.095584	0.070627	-0.979819	-0.186992	0.032052	0.189592	-0.981340	0.996988	0.063315	0.044795
93	3344977916													-0.023812	0.025718	0.074947	0.070478	-0.979955	-0.186337	0.031544	0.188898	-0.981490	0.997014	0.063296	0.044225
94	3344994583													-0.013253	0.014881	0.061534	0.070335	-0.980027	-0.186011	0.031094	0.188536	-0.981574	0.997039	0.063255	0.043734
95	3345011250													-0.070357	-0.014688	0.059347	0.070094	-0.980045	-0.186005	0.030676	0.188493	-0.981595	0.997069	0.063098	0.043276
96	3345027917													-0.064730	-0.017616	0.048865	0.069829	-0.980043	-0.186116	0.030298	0.188569	-0.981592	0.997099	0.062905	0.042861
97	3345044584													-0.081016	-0.080690	0.055686	0.069684	-0.980010	-0.186347	0.030003	0.188776	-0.981562	0.997118	0.062809	0.042558
98	3345061251													-0.024437	-0.129137	0.074413	0.069703	-0.979862	-0.187112	0.029734	0.189526	-0.981425	0.997125	0.062845	0.042346
99	3345077918													-0.033698	0.041663	0.073820	0.069788	-0.979806	-0.187378	0.029561	0.189785	-0.981381	0.997124	0.062949	0.042209
100	3345094585													-0.133588	0.081667	0.096459	0.069870	-0.979843	-0.187153	0.029452	0.189556	-0.981428	0.997121	0.063060	0.042103
101	3345111252													-0.072329	-0.061948	0.049233	0.069944	-0.979764	-0.187536	0.029351	0.189936	-0.981358	0.997119	0.063136	0.042042
102	3345127919													-0.000935	-0.028553	0.052879	0.070024	-0.979667	-0.188012	0.029249	0.190410	-0.981269	0.997116	0.063213	0.041987
103	3345144586													0.006094	0.028134	0.103951	0.070042	-0.979618	-0.188264	0.029149	0.190657	-0.981224	0.997118	0.063239	0.041909
104	3345161253													0.015548	0.024448	0.086618	0.070077	-0.979526	-0.188727	0.029058	0.191116	-0.981137	0.997118	0.063272	0.041856
105	3345177920													-0.001367	0.069856	0.088844	0.070018	-0.979427	-0.189264	0.028925	0.191644	-0.981038	0.997126	0.063216	0.041748
106	3345194587													-0.002836	0.037542	0.072100	0.070039	-0.979387	-0.189464	0.028828	0.191838	-0.981003	0.997128	0.063246	0.041669
107	3345211254													0.007996	0.026145	0.063789	0.070162	-0.979414	-0.189276	0.028708	0.191647	-0.981044	0.997122	0.063398	0.041563
108	3345227921													0.024956	0.015405	0.083858	0.070307	-0.979480	-0.188881	0.028498	0.191245	-0.981129	0.997118	0.063598	0.041360
109	3345244588													0.020741	0.063422	0.095819	0.070291	-0.979544	-0.188552	0.028252	0.190899	-0.981203	0.997126	0.063643	0.041092
110	3345261255													0.054999	0.070834	0.077486	0.070424	-0.979623	-0.188093	0.028054	0.190432	-0.981300	0.997123	0.063831	0.040894
111	3345277922													0.078757	0.062373	0.070525	0.070655	-0.979661	-0.187810	0.027751	0.190138	-0.981365	0.997115	0.064127	0.040621
112	3345294589													0.089903	0.049810	0.088651	0.070814	-0.979705	-0.187517	0.027420	0.189830	-0.981434	0.997113	0.064358	0.040306
113	3345311256													0.077986	0.004294	0.091270	0.070905	-0.979752	-0.187242	0.026990	0.189530	-0.981504	0.997118	0.064540	0.039882
114	3345327923													0.084927	0.049281	0.095470	0.070954	-0.979824	-0.186842	0.026499	0.189100	-0.981600	0.997128	0.064698	0.039382
115	3345344590													0.069281	0.039190	0.094438	0.070914	-0.979895	-0.186487	0.025935	0.188706	-0.981691	0.997145	0.064779	0.038795
116	3345361257													0.100390	0.060442	0.073354	0.070876	-0.979938	-0.186274	0.025245	0.188446	-0.981759	0.997166	0.064881	0.038095
117	3345377924													0.110758	0.054818	0.051922	0.070820	-0.979957	-0.186197	0.024298	0.188306	-0.981810	0.997193	0.065008	0.037147
118	3345394591													0.085247	0.100460	0.080936	0.070994	-0.980000	-0.185901	0.022978	0.187929	-0.981914	0.997212	0.065438	0.035861
119	3345411258													0.025582	0.125788	0.096702	0.071233	-0.980088	-0.185345	0.021210	0.187263	-0.982081	0.997234	0.066025	0.034127
120	3345427925													-0.014959	0.228253	0.050193	0.071795	-0.980205	-0.184508	0.018824	0.186284	-0.982316	0.997242	0.067052	0.031826
121	3345444592													-0.032538	0.294736	0.052814	0.072650	-0.980370	-0.183292	0.015702	0.184879	-0.982636	0.997234	0.068510	0.028825
122	3345461259													-0.027631	0.300081	0.041323	0.073849	-0.980555	-0.181822	0.011616	0.183153	-0.983016	0.997202	0.070483	0.024916
123	3345477926													-0.075682	0.307579	0.071680	0.075037	-0.980852	-0.179718	0.006662	0.180715	-0.983513	0.997159	0.072602	0.020095
124	3345494593													-0.062201	0.180447	-0.052814	0.075624	-0.981143	-0.177874	0.000769	0.178442	-0.983950	0.997136	0.074274	0.014249
125	3345511260													-0.100613	0.056834	-0.048185	0.076363	-0.981418	-0.176031	-0.006280	0.176069	-0.984358	0.997060	0.076274	0.007282
126	3345527927													-0.144246	-0.167198	-0.123349	0.076753	-0.981645	-0.174588	-0.014269	0.174006	-0.984641	0.996948	0.078065	-0.000652
127	3345544594													-0.199551	-0.237370	-0.209970	0.076688	-0.981814	-0.173668	-0.023070	0.172387	-0.984759	0.996788	0.079526	-0.009430
128	3345561261													-0.142905	-0.302023	-0.298331	0.076443	-0.981871	-0.173454	-0.032829	0.171390	-0.984656	0.996533	0.080964	-0.019132
129	3345577928													-0.078780	-0.351208	-0.216185	0.076513	-0.981617	-0.174852	-0.043258	0.171932	-0.984159	0.996130	0.082865	-0.029308
130	3345594595													-0.247808	-0.237373	-0.160439	0.076529	-0.981282	-0.176715	-0.054540	0.172850	-0.983437	0.995575	0.084900	-0.040291
131	3345611262													-0.344052	-0.101716	-0.148545	0.077239	-0.980774	-0.179211	-0.066115	0.174314	-0.982468	0.994818	0.087734	-0.051380
132	3345627929													-0.353723	-0.504383	-0.490890	0.079088	-0.979932	-0.182969	-0.079124	0.176794	-0.981062	0.993723	0.092068	-0.063554
133	3345644596													-0.625964	-0.383274	-0.356939	0.080165	-0.978672	-0.189144	-0.093437	0.181541	-0.978934	0.992393	0.096149	-0.076891
134	3345661263													0.034218	0.116513	-0.309757	0.081458	-0.977317	-0.195488	-0.109153	0.186212	-0.976427	0.990682	0.100876	-0.091509
135	3345677930													-0.012895	-0.419932	-0.045714	0.084785	-0.975879	-0.201178	-0.126334	0.189747	-0.973671	0.988358	0.107968	-0.107199
136	3345694597													0.023355	-0.733941	0.108516	0.085818	-0.973585	-0.211584	-0.146458	0.197733	-0.969253	0.985487	0.114167	-0.125620
137	3345711264													0.499613	-1.299379	-0.118378	0.084469	-0.971333	-0.222211	-0.168139	0.205915	-0.964017	0.982138	0.118792	-0.145926
138	3345727931													0.697514	-1.589642	-0.081545	0.080029	-0.968544	-0.235622	-0.192147	0.216957	-0.957084	0.978098	0.121869	-0.168740
139	3345744598													1.328651	-1.772034	-0.603320	0.075860	-0.965817	-0.247877	-0.216295	0.226735	-0.949636	0.973376	0.125654	-0.191701
140	3345761265													1.683938	-1.288550	-1.098547	0.069996	-0.961899	-0.264294	-0.242530	0.240585	-0.939839	0.967616	0.129884	-0.216449
141	3345777932													-0.844038	-0.257918	1.239236	0.062224	-0.959600	-0.274403	-0.264446	0.249258	-0.931632	0.962391	0.130534	-0.238253
142	3345794599													-1.111971	-1.343474	-0.082494	0.048975	-0.959311	-0.278070	-0.282165	0.253775	-0.925192	0.958115	0.123773	-0.258255
143	3345811266													0.444398	-0.671192	-1.533094	0.034851	-0.958030	-0.284541	-0.301120	0.261417	-0.917054	0.952949	0.117641	-0.279371
144	3345827933													0.097880	-0.377326	-1.353683	0.024127	-0.958392	-0.284434	-0.323100	0.261772	-0.909441	0.946057	0.113843	-0.303340
145	3345844600													-1.604499	-0.419857	-1.553834	0.013303	-0.960539	-0.277828	-0.347641	0.256076	-0.901981	0.937533	0.108584	-0.330516
146	3345861267													-1.712352	0.380600	-1.268088	0.002701	-0.963963	-0.266024	-0.371882	0.245977	-0.895097	0.928276	0.101348	-0.357816
147	3345877934													-0.600069	-0.453392	-0.907815	-0.002121	-0.968622	-0.248531	-0.396765	0.228947	-0.888910	0.917918	0.096723	-0.384801
148	3345894601													0.159535	0.354141	-3.024428	-0.003642	-0.972325	-0.233605	-0.423559	0.213116	-0.880443	0.905861	0.095739	-0.412613
149	3345911268													1.073090	1.920291	-1.724700	-0.006708	-0.974607	-0.223822	-0.450701	0.202750	-0.869345	0.892650	0.095046	-0.440616
150	3345927935													1.180679	1.516034	-1.217999	-0.006437	-0.977726	-0.209789	-0.475669	0.187532	-0.859402	0.879601	0.094258	-0.466280
151	3345944602													0.537378	0.618689	-0.187030	-0.003562	-0.980445	-0.196764	-0.497310	0.172444	-0.850262	0.867565	0.094824	-0.488199
152	3345961269													0.586925	0.350560	0.770947	-0.005031	-0.981823	-0.189732	-0.516464	0.165022	-0.840258	0.856294	0.093762	-0.507907
153	3345977936													0.381353	0.222373	2.397833	-0.011569	-0.982482	-0.186000	-0.533499	0.163389	-0.829869	0.845721	0.089630	-0.526044
154	3345994603													-0.392181	0.450995	1.283939	-0.019766	-0.982783	-0.183704	-0.549882	0.164140	-0.818956	0.835009	0.084828	-0.543659
155	3346011270													-0.252582	0.606881	-0.081091	-0.024432	-0.983439	-0.179583	-0.565761	0.161704	-0.808558	0.824207	0.081846	-0.560343
156	3346027937													-0.045035	0.990788	-0.627349	-0.023191	-0.984686	-0.172786	-0.580973	0.153927	-0.799235	0.813593	0.081849	-0.575645
157	3346044604													0.357070	1.631290	0.583323	-0.017895	-0.986085	-0.165277	-0.595674	0.143279	-0.790344	0.803027	0.084308	-0.589949
158	3346061271													0.495098	1.579566	2.577296	-0.013763	-0.986912	-0.160671	-0.608482	0.135774	-0.781867	0.793449	0.087005	-0.602386
159	3346077938													0.750121	1.777623	3.168005	-0.014059	-0.986966	-0.160313	-0.618818	0.134524	-0.773930	0.785409	0.088324	-0.612643
160	3346094605													-0.020302	1.363526	2.813725	-0.016158	-0.986473	-0.163123	-0.626324	0.137156	-0.767403	0.779396	0.089768	-0.620068
161	3346111272													-0.374522	1.155203	1.814208	-0.017031	-0.985776	-0.167197	-0.631444	0.140258	-0.762631	0.775235	0.092587	-0.624851
162	3346127939													-0.293893	0.646501	1.380545	-0.013104	-0.985454	-0.169437	-0.634248	0.139192	-0.760497	0.773019	0.097499	-0.626846
163	3346144606													0.033260	0.671736	2.544606	-0.006477	-0.985459	-0.169787	-0.634594	0.135271	-0.760915	0.772819	0.102817	-0.626243
164	3346161273													0.104187	0.484686	3.516453	-0.001186	-0.985185	-0.171491	-0.631904	0.133652	-0.763436	0.775045	0.107461	-0.622701
165	3346177940													-0.427819	0.243180	3.429435	0.002015	-0.984556	-0.175057	-0.626072	0.135261	-0.767944	0.779763	0.111146	-0.616131
166	3346194607													-0.711902	0.378320	2.908705	0.004285	-0.983721	-0.179649	-0.616927	0.138787	-0.774687	0.787009	0.114150	-0.606290
167	3346211274													-0.621314	0.309568	2.438698	0.009106	-0.982929	-0.183758	-0.604751	0.140936	-0.783845	0.796363	0.118265	-0.593144
168	3346227941													-0.582559	0.176822	2.332808	0.014147	-0.982278	-0.186897	-0.589794	0.142739	-0.794838	0.807430	0.121475	-0.577322
169	3346244608													-0.416680	-0.098677	2.269227	0.019050	-0.981694	-0.189512	-0.572297	0.144717	-0.807176	0.819825	0.123833	-0.559064
170	3346261275													-0.279461	-0.056014	2.199463	0.024030	-0.981167	-0.191663	-0.552404	0.146760	-0.820556	0.833230	0.125593	-0.538474
171	3346277942													-0.435085	-0.006064	2.010269	0.028522	-0.980630	-0.193780	-0.530282	0.149488	-0.834538	0.847341	0.126561	-0.515747
172	3346294609													-0.680744	0.337904	1.666980	0.032812	-0.980100	-0.195775	-0.506375	0.152577	-0.848708	0.861689	0.126983	-0.491292
173	3346311276													-0.938092	0.724722	0.976029	0.036548	-0.979551	-0.197849	-0.480817	0.156323	-0.862774	0.876059	0.126662	-0.465271
174	3346327943													-0.878494	0.262263	0.086809	0.038849	-0.978745	-0.201370	-0.453532	0.162298	-0.876338	0.890393	0.125372	-0.437587
175	3346344610													-0.780636	0.028950	-0.698155	0.039765	-0.977264	-0.208265	-0.424383	0.172179	-0.888962	0.904609	0.123733	-0.407888
176	3346361277													-0.727103	0.064699	-1.040217	0.041776	-0.975427	-0.216324	-0.392823	0.183041	-0.901214	0.918665	0.122626	-0.375524
177	3346377944													-0.438389	-0.046508	-1.328816	0.045839	-0.973636	-0.223454	-0.358992	0.192690	-0.913233	0.932214	0.122080	-0.340695
178	3346394611													-0.371165	-0.449636	-1.039620	0.051756	-0.971924	-0.229532	-0.323547	0.201124	-0.924590	0.944795	0.122117	-0.304054
179	3346411278													-0.358060	-0.294160	-1.364502	0.058724	-0.970706	-0.232984	-0.288757	0.206893	-0.934781	0.955600	0.122170	-0.268149
180	3346427945													-0.324267	0.233124	-1.350660	0.064322	-0.969337	-0.237168	-0.253049	0.214050	-0.943477	0.965313	0.120702	-0.231521
181	3346444612													0.046995	0.119357	-1.055862	0.069977	-0.968462	-0.239134	-0.215447	0.219391	-0.951551	0.974005	0.118107	-0.193300
182	3346461279													-0.290607	-0.133120	-2.004547	0.079540	-0.968489	-0.236013	-0.176119	0.219385	-0.959611	0.981150	0.117894	-0.153119
183	3346477946													-0.409288	-0.406211	-2.030114	0.086616	-0.968885	-0.231862	-0.136348	0.219018	-0.966147	0.986867	0.115298	-0.113135
184	3346494613													0.168036	0.041820	-2.322863	0.092068	-0.969785	-0.225923	-0.101152	0.216604	-0.971005	0.990602	0.112251	-0.078153
185	3346511280													0.559120	-0.804155	-2.058306	0.094360	-0.970797	-0.220566	-0.072773	0.214236	-0.974067	0.992875	0.107964	-0.050433
186	3346527947													1.433477	-0.939861	-1.415542	0.094431	-0.971657	-0.216715	-0.046697	0.213124	-0.975908	0.994436	0.102276	-0.025248
187	3346544614													1.926889	0.105288	-1.104457	0.093686	-0.972805	-0.211832	-0.025372	0.210366	-0.977293	0.995278	0.096933	-0.004973
188	3346561281													1.650654	-0.040439	-0.475669	0.091601	-0.973938	-0.207497	-0.010979	0.207373	-0.978200	0.995735	0.091882	0.008303
189	3346577948													1.358605	-0.691725	-0.539990	0.089241	-0.974769	-0.204599	0.000679	0.205478	-0.978662	0.996010	0.087198	0.018999
190	3346594615													0.811721	-0.874940	0.110981	0.087373	-0.975331	-0.202719	0.011415	0.204464	-0.978807	0.996110	0.083207	0.028998
191	3346611282													0.391645	-0.631874	0.000466	0.085415	-0.976217	-0.199258	0.019228	0.201567	-0.979286	0.996160	0.079814	0.035988
192	3346627949													-0.203899	-0.264778	0.641251	0.082942	-0.977557	-0.193656	0.026199	0.196398	-0.980174	0.996210	0.076224	0.041900
193	3346644616													-0.590769	0.072468	0.414428	0.080839	-0.979310	-0.185521	0.032031	0.188586	-0.981534	0.996212	0.073404	0.046614
194	3346661283													-0.524250	0.413078	0.216621	0.078712	-0.981117	-0.176672	0.036806	0.179961	-0.982985	0.996218	0.070871	0.050277
195	3346677950													-0.541139	0.707884	0.276801	0.077621	-0.982416	-0.169807	0.039993	0.173252	-0.984065	0.996180	0.069593	0.052738
196	3346694617													-0.662315	0.570873	0.089858	0.077651	-0.983215	-0.165102	0.042381	0.168707	-0.984755	0.996079	0.069470	0.054770
197	3346711284													-0.662132	0.466844	0.155276	0.077532	-0.983697	-0.162261	0.044008	0.165969	-0.985149	0.996018	0.069240	0.056158
198	3346727951													-0.261077	0.285924	-0.419380	0.076373	-0.984168	-0.159937	0.044883	0.163636	-0.985499	0.996069	0.068087	0.056670
199	3346744618													-0.103625	0.125603	-0.168502	0.075416	-0.984429	-0.158782	0.044856	0.162424	-0.985701	0.996143	0.067215	0.056407
200	3346761285													0.113205	0.031714	-0.102742	0.074899	-0.984294	-0.159860	0.043936	0.163412	-0.985579	0.996223	0.066795	0.055486
201	3346777952													0.091213	-0.101204	-0.181019	0.074161	-0.983894	-0.162644	0.042037	0.166032	-0.985224	0.996360	0.066228	0.053673
202	3346794619													-0.232783	-0.388415	-0.166978	0.074658	-0.983196	-0.166587	0.039489	0.169837	-0.984681	0.996427	0.066936	0.051505
203	3346811286													-0.475045	-0.436336	0.074791	0.075059	-0.982309	-0.171566	0.036055	0.174612	-0.983977	0.996527	0.067671	0.048523
204	3346827953													-0.739366	-0.302175	0.000321	0.074774	-0.981301	-0.177364	0.031971	0.180129	-0.983123	0.996688	0.067842	0.044843
205	3346844620													-0.889180	-0.340087	-0.101987	0.075180	-0.980186	-0.183257	0.027426	0.185740	-0.982216	0.996793	0.068817	0.040847
206	3346861287													-0.911375	-0.319454	-0.077054	0.075702	-0.978906	-0.189768	0.022353	0.191932	-0.981154	0.996880	0.070034	0.036411
207	3346877954													-0.684869	-0.268184	-0.105497	0.075830	-0.977758	-0.195549	0.016555	0.197321	-0.980199	0.996983	0.071092	0.031150
208	3346894621													-0.754752	-0.066837	-0.154926	0.075706	-0.977043	-0.199138	0.009809	0.200431	-0.979659	0.997082	0.072213	0.024758
209	3346911288													-0.803143	-0.052287	-0.119556	0.076194	-0.976975	-0.199286	0.002173	0.200030	-0.979787	0.997091	0.074221	0.017364
210	3346927955													-0.513012	-0.166761	-0.172869	0.076482	-0.977149	-0.198321	-0.006671	0.198398	-0.980099	0.997049	0.076283	0.008655
211	3346944622													-0.037722	-0.025985	-0.349249	0.076741	-0.977207	-0.197933	-0.017090	0.197200	-0.980214	0.996905	0.078605	-0.001567
212	3346961289													0.757698	0.488416	-0.583944	0.077652	-0.977380	-0.196719	-0.029947	0.194939	-0.980358	0.996531	0.082018	-0.014133
213	3346977956													1.300716	0.844173	-0.189172	0.080350	-0.977786	-0.193593	-0.044670	0.190494	-0.980672	0.995765	0.087444	-0.028371
214	3346994623													2.363234	0.853011	-0.682230	0.083952	-0.978319	-0.189325	-0.063339	0.184373	-0.980813	0.994455	0.094333	-0.046487
215	3347011290													2.742727	-0.041800	-0.721326	0.089749	-0.977779	-0.189457	-0.086853	0.181817	-0.979489	0.992170	0.104363	-0.068605
216	3347027957													2.417871	-1.120197	-1.110090	0.098223	-0.975599	-0.196364	-0.119000	0.184388	-0.975623	0.988024	0.119196	-0.097985
217	3347044624													1.023474	-1.348470	-1.124096	0.098994	-0.971296	-0.216296	-0.161947	0.198740	-0.966579	0.981821	0.130714	-0.137625
218	3347061291													0.055958	-2.043418	-1.016599	0.094887	-0.965357	-0.243067	-0.206208	0.219812	-0.953499	0.973897	0.140598	-0.178207
219	3347077958													-3.433820	-2.306002	-0.392152	0.085717	-0.959980	-0.266630	-0.246516	0.238859	-0.939243	0.965341	0.146238	-0.216176
220	3347094625													-2.762241	-1.004719	-1.665767	0.073570	-0.957817	-0.277801	-0.278351	0.247765	-0.927973	0.957658	0.145597	-0.248381
221	3347111292													-2.225630	-0.328630	-1.224745	0.057888	-0.958334	-0.279721	-0.302191	0.250226	-0.919819	0.951488	0.137776	-0.275115
222	3347127959													0.741677	-2.020871	-0.997942	0.046235	-0.957145	-0.285895	-0.322626	0.256555	-0.911094	0.945397	0.134362	-0.296938
223	3347144626													1.515611	-2.292362	0.013472	0.041663	-0.957223	-0.286335	-0.344955	0.255180	-0.903266	0.937694	0.136406	-0.319567
224	3347161293													-1.782383	-0.571271	1.009723	0.030993	-0.958444	-0.283592	-0.369801	0.252599	-0.894115	0.928594	0.132584	-0.346605
225	3347177960													-2.435743	-1.581147	-0.009171	0.022913	-0.960607	-0.276966	-0.396103	0.245643	-0.884739	0.917920	0.129978	-0.374870
226	3347194627													-1.255082	-0.707331	-1.989980	0.015467	-0.964269	-0.264474	-0.424029	0.233217	-0.875105	0.905517	0.125680	-0.405271
227	3347211294													1.692262	1.062489	-2.685162	0.012947	-0.969148	-0.246139	-0.451845	0.213923	-0.866068	0.892002	0.122429	-0.435135
228	3347227961													2.037164	0.589972	-2.803530	0.012777	-0.973400	-0.228756	-0.478768	0.194890	-0.856037	0.877849	0.120459	-0.463542
229	3347244628													0.974189	1.879436	-1.290246	0.012269	-0.975724	-0.218660	-0.503725	0.182871	-0.844286	0.863777	0.120503	-0.489253
230	3347261295													0.622166	1.068325	0.932987	0.014668	-0.977571	-0.210095	-0.525245	0.171260	-0.833539	0.850825	0.122577	-0.510952
231	3347277962													-0.131075	0.579878	2.777923	0.014547	-0.978852	-0.204053	-0.543697	0.163525	-0.823197	0.839155	0.122918	-0.529820
232	3347294629													-0.385192	0.668207	1.964752	0.006210	-0.979289	-0.202374	-0.561635	0.164027	-0.810963	0.827362	0.118697	-0.548984
233	3347311296													0.026688	1.180456	0.427985	-0.004702	-0.979423	-0.201762	-0.580888	0.166907	-0.796688	0.813970	0.113455	-0.569720
234	3347327963													0.413299	1.065387	-0.944088	-0.011068	-0.980077	-0.198311	-0.599843	0.165184	-0.782881	0.800041	0.110291	-0.589721
235	3347344630													0.161016	1.031448	-0.809508	-0.009275	-0.981445	-0.191521	-0.617686	0.156243	-0.770748	0.786371	0.111151	-0.607673
236	3347361297													0.289349	1.482193	1.055220	-0.005006	-0.982562	-0.185868	-0.634514	0.146781	-0.758846	0.772895	0.114137	-0.624184
237	3347377964													0.989643	1.561562	3.372513	-0.004991	-0.982844	-0.184370	-0.649200	0.143420	-0.746974	0.760602	0.115965	-0.638778
238	3347394631													0.625451	1.070596	2.887237	-0.009914	-0.982515	-0.185919	-0.660831	0.145978	-0.736202	0.750469	0.115563	-0.650724
239	3347411298													0.512192	1.257922	0.896527	-0.014498	-0.982072	-0.187946	-0.670506	0.148989	-0.726790	0.741762	0.115482	-0.660646
240	3347427965													0.472925	1.459448	0.553309	-0.015457	-0.981693	-0.189844	-0.678821	0.149709	-0.718881	0.734141	0.117758	-0.668707
241	3347444632													0.549121	1.561754	1.646108	-0.013186	-0.981415	-0.191442	-0.685177	0.148312	-0.713117	0.728257	0.121768	-0.674399
242	3347461299													0.776021	1.449808	2.515036	-0.011685	-0.980901	-0.194157	-0.688987	0.148619	-0.709373	0.724680	0.125482	-0.677564
243	3347477966													0.711019	1.363111	2.822364	-0.010674	-0.980058	-0.198423	-0.690072	0.150827	-0.707850	0.723662	0.129371	-0.677921
244	3347494633													0.432551	0.956240	2.611905	-0.009231	-0.979095	-0.203193	-0.688442	0.153598	-0.708841	0.725233	0.133343	-0.675468
245	3347511300													-0.038516	0.638165	2.592303	-0.006509	-0.978147	-0.207815	-0.684147	0.155925	-0.712482	0.729315	0.137538	-0.670211
246	3347527967													-0.352111	0.340584	2.575698	-0.001924	-0.977335	-0.211691	-0.677091	0.157056	-0.718944	0.735897	0.141951	-0.662047
247	3347544634													-0.278391	-0.065207	2.787388	0.005224	-0.976730	-0.214409	-0.667258	0.156293	-0.728243	0.744808	0.146870	-0.650915
248	3347561301													-0.165321	-0.412689	3.161627	0.012438	-0.976198	-0.216525	-0.654748	0.155712	-0.739634	0.755745	0.150969	-0.637227
249	3347577968													-0.413286	-0.466794	3.293720	0.018898	-0.975799	-0.217850	-0.640209	0.155552	-0.752287	0.767968	0.153687	-0.621776
250	3347594635													-0.896356	-0.270840	2.678605	0.025377	-0.975715	-0.217567	-0.623576	0.154655	-0.766312	0.781350	0.155116	-0.604508
251	3347611302													-1.373030	-0.305487	1.704948	0.031678	-0.975809	-0.216320	-0.604350	0.153682	-0.781756	0.796089	0.155497	-0.584861
252	3347627969													-1.475174	-0.389641	1.623581	0.038241	-0.975997	-0.214403	-0.581859	0.152685	-0.798829	0.812390	0.155300	-0.562053
253	3347644636													-1.698869	-0.417012	2.249542	0.046058	-0.976364	-0.211167	-0.555799	0.150602	-0.817561	0.830040	0.155022	-0.535726
254	3347661303													-2.076855	-0.605560	2.723915	0.054017	-0.976695	-0.207723	-0.526651	0.148874	-0.836944	0.848364	0.154607	-0.506336
255	3347677970													-2.032868	-0.873986	2.632127	0.059648	-0.977009	-0.204685	-0.494830	0.149143	-0.856096	0.866940	0.152349	-0.474557
256	3347694637													-2.171048	-1.319245	2.016898	0.063068	-0.977056	-0.203429	-0.461242	0.152223	-0.874119	0.885030	0.148959	-0.441059
257	3347711304													-1.718042	-1.259888	1.050609	0.064301	-0.976522	-0.205599	-0.426601	0.159353	-0.890291	0.902151	0.144955	-0.406338
258	3347727971													-1.198450	-0.974948	-0.146151	0.064183	-0.975550	-0.210198	-0.389061	0.169504	-0.905483	0.918973	0.139896	-0.368669
259	3347744638													-0.380050	-0.528082	-1.421779	0.064416	-0.974316	-0.215776	-0.349046	0.180569	-0.919545	0.934889	0.134549	-0.328449
260	3347761305													0.171750	-0.500697	-2.267459	0.064883	-0.972887	-0.221993	-0.307463	0.192149	-0.931958	0.949345	0.128723	-0.286659
261	3347777972													0.209396	0.189735	-3.117519	0.067313	-0.971266	-0.228280	-0.264672	0.203219	-0.942683	0.961986	0.123874	-0.243388
262	3347794639													0.362663	0.388515	-3.023503	0.071451	-0.971135	-0.227578	-0.219850	0.207217	-0.953272	0.972914	0.118145	-0.198698
263	3347811306													0.384937	0.941058	-3.799795	0.076864	-0.972251	-0.220950	-0.174746	0.205039	-0.963028	0.981609	0.112633	-0.154137
264	3347827973													0.602245	1.175918	-3.945823	0.080474	-0.974116	-0.211239	-0.131481	0.199701	-0.970995	0.988047	0.105914	-0.112007
265	3347844640													0.551013	1.980057	-5.009218	0.085062	-0.976564	-0.197705	-0.094047	0.189669	-0.977334	0.991927	0.101727	-0.075710
266	3347861307													0.898854	0.951217	-3.890923	0.087998	-0.978737	-0.185285	-0.065481	0.179921	-0.981499	0.993966	0.098503	-0.048256
267	3347877974													0.727038	0.245866	-0.901339	0.085988	-0.979414	-0.182629	-0.040242	0.179744	-0.982890	0.995483	0.091866	-0.023957
268	3347894641													1.355877	-0.085480	-1.308779	0.085498	-0.979226	-0.183865	-0.018053	0.182988	-0.982949	0.996175	0.087360	-0.002033
269	3347911308													1.970120	-1.453649	-0.728896	0.084067	-0.977921	-0.191322	-0.001456	0.191881	-0.981417	0.996459	0.082784	0.014707
270	3347927975													1.831233	-1.933531	-0.330944	0.081492	-0.975826	-0.202788	0.013831	0.204552	-0.978758	0.996578	0.076956	0.030166
271	3347944642													1.334044	-1.753938	0.655076	0.078362	-0.973632	-0.214243	0.026689	0.216876	-0.975834	0.996568	0.070750	0.042980
272	3347961309													0.480468	-0.950013	1.223534	0.076038	-0.972445	-0.220383	0.036095	0.223563	-0.974021	0.996451	0.066108	0.052099
273	3347977976													-0.086095	-0.403824	0.860032	0.073799	-0.972703	-0.220004	0.042488	0.223472	-0.973784	0.996368	0.062517	0.057820
274	3347994643													-0.611512	-0.458518	0.037535	0.073602	-0.973505	-0.216499	0.046163	0.220180	-0.974366	0.996219	0.061721	0.061145
275	3348011310													-1.255190	-0.072005	0.111042	0.074021	-0.974904	-0.209958	0.047686	0.213755	-0.975723	0.996116	0.062212	0.062311
276	3348027977													-1.781619	-0.129647	0.374715	0.074420	-0.977091	-0.199384	0.049460	0.203309	-0.977865	0.996000	0.062911	0.063457
277	3348044644													-1.881801	-0.119505	0.115973	0.074200	-0.979699	-0.186239	0.050662	0.190216	-0.980434	0.995956	0.063313	0.063747
278	3348061311													-1.258613	0.217869	-0.296745	0.073911	-0.982290	-0.172172	0.050294	0.176096	-0.983087	0.995996	0.064002	0.062418
279	3348077978													-0.287213	0.596288	-0.324712	0.073362	-0.984448	-0.159623	0.048544	0.163390	-0.985367	0.996123	0.064540	0.059776
280	3348094645													0.447454	0.640558	-0.379352	0.072709	-0.986011	-0.149985	0.045791	0.153524	-0.987083	0.996301	0.064902	0.056313
281	3348111312													0.649556	0.170555	-0.278484	0.072227	-0.987043	-0.143280	0.042370	0.146562	-0.988294	0.996488	0.065311	0.052407
282	3348127979													0.650894	-0.374068	-0.089971	0.072433	-0.987567	-0.139514	0.039023	0.142581	-0.989014	0.996610	0.066193	0.048865
283	3348144646													0.643898	-0.544254	0.193454	0.072999	-0.987750	-0.137916	0.035976	0.140803	-0.989384	0.996683	0.067262	0.045813
284	3348161313													0.357421	-0.266623	0.216722	0.072987	-0.987909	-0.136783	0.033071	0.139471	-0.989674	0.996784	0.067710	0.042851
285	3348177980													0.099173	-0.057512	0.024129	0.073152	-0.987841	-0.137180	0.030194	0.139680	-0.989736	0.996864	0.068259	0.040045
286	3348194647													-0.114368	0.278837	-0.095860	0.073088	-0.987445	-0.140040	0.026994	0.142323	-0.989452	0.996960	0.068537	0.037058
287	3348211314													-0.204254	0.497221	-0.127771	0.072768	-0.986776	-0.144835	0.023094	0.146849	-0.988889	0.997081	0.068614	0.033474
288	3348227981													-0.196003	0.527017	-0.071842	0.072421	-0.986172	-0.149066	0.018175	0.150738	-0.988407	0.997209	0.068872	0.028840
289	3348244648													-0.009836	0.436609	-0.085764	0.072419	-0.985464	-0.153674	0.011869	0.154919	-0.987856	0.997304	0.069716	0.022915
290	3348261315													0.359105	0.238891	-0.182475	0.073858	-0.984466	-0.159286	0.003543	0.159980	-0.987114	0.997262	0.072342	0.015304
291	3348277982													0.762808	0.342518	-0.321689	0.076101	-0.982775	-0.168412	-0.006990	0.168372	-0.985699	0.997076	0.076190	0.005944
292	3348294649													1.099985	0.608931	-0.438103	0.079263	-0.980363	-0.180573	-0.020298	0.179518	-0.983545	0.996647	0.081624	-0.005671
293	3348311316													1.159539	0.761340	-0.376190	0.081728	-0.977110	-0.196409	-0.036147	0.194032	-0.980329	0.995999	0.087220	-0.019462
294	3348327983													0.965281	2.064328	-0.648613	0.085084	-0.973915	-0.210360	-0.054649	0.206246	-0.976973	0.994874	0.094620	-0.035675
295	3348344650													0.978199	0.656295	-0.792297	0.091493	-0.970959	-0.221058	-0.076091	0.214524	-0.973750	0.992894	0.105912	-0.054254
296	3348361317													0.560038	-1.436245	-1.323593	0.097546	-0.965603	-0.241031	-0.106198	0.230704	-0.967211	0.989549	0.119945	-0.080041
297	3348377984													-0.203097	-1.370767	-1.330865	0.096499	-0.958350	-0.268801	-0.144980	0.253647	-0.956370	0.984718	0.131260	-0.114465
298	3348394651													-1.277221	-0.573948	-0.866733	0.098054	-0.954873	-0.280362	-0.184171	0.259442	-0.948035	0.977991	0.144593	-0.150421
299	3348411318													-3.322357	-2.963212	-2.060989	0.094399	-0.953677	-0.285638	-0.222342	0.259475	-0.939807	0.970388	0.152225	-0.187548
300	3348427985													-4.723269	-2.153379	-1.481267	0.082591	-0.950855	-0.298418	-0.256275	0.269107	-0.928388	0.963069	0.153153	-0.221454
301	3348444652													-0.861463	-0.843483	-0.833106	0.075400	-0.950539	-0.301316	-0.282023	0.269510	-0.920776	0.956440	0.154405	-0.247752
302	3348461319													-0.609815	-1.812018	-0.128848	0.068303	-0.950481	-0.303184	-0.303589	0.269681	-0.913841	0.950352	0.154461	-0.270136
303	3348477986													1.890693	-0.543162	1.444740	0.057300	-0.949047	-0.309882	-0.324774	0.275790	-0.904689	0.944054	0.152480	-0.292422
304	3348494653													0.106881	-1.995100	1.875635	0.048437	-0.949494	-0.310023	-0.349706	0.274620	-0.895706	0.935606	0.151803	-0.318742
305	3348511320													-0.697469	-3.309280	0.816278	0.034821	-0.950386	-0.309119	-0.377620	0.273865	-0.884534	0.925306	0.147530	-0.349349
306	3348527987													-1.214886	-0.696602	-1.041382	0.021027	-0.952814	-0.302827	-0.407435	0.268435	-0.872892	0.912992	0.141736	-0.382565
307	3348544654													0.822918	1.139442	-3.042776	0.011222	-0.956958	-0.290011	-0.436800	0.256203	-0.862303	0.899489	0.136354	-0.415124
308	3348561321													0.877957	1.541149	-3.869902	0.009395	-0.962379	-0.271547	-0.464927	0.236217	-0.853255	0.885299	0.134266	-0.445217
309	3348577988													0.736099	1.068480	-2.851842	0.014858	-0.967120	-0.253887	-0.491769	0.214014	-0.844015	0.870599	0.137394	-0.472420
310	3348594655													1.599393	0.646040	-0.616980	0.018586	-0.970067	-0.242126	-0.516189	0.198088	-0.833252	0.856273	0.140470	-0.497057
311	3348611322													1.488866	0.613750	1.928593	0.016573	-0.971686	-0.235693	-0.537818	0.190056	-0.821359	0.842898	0.140372	-0.519440
312	3348627989													0.006102	0.382583	2.087887	0.008792	-0.973092	-0.230247	-0.557999	0.186298	-0.808659	0.829795	0.135588	-0.541346
313	3348644656													-0.420283	0.402501	0.385114	-0.000901	-0.974306	-0.225228	-0.579199	0.184112	-0.794123	0.815186	0.129736	-0.564482
314	3348661323													-0.041327	0.992794	-0.865730	-0.006918	-0.975461	-0.220062	-0.600307	0.180052	-0.779239	0.799740	0.126714	-0.586822
315	3348677990													-0.199588	1.447002	-0.588939	-0.007971	-0.976890	-0.213595	-0.620239	0.172378	-0.765238	0.784372	0.126380	-0.607279
316	3348694657													-0.207838	1.557852	0.159817	-0.005172	-0.978216	-0.207526	-0.638680	0.162917	-0.752028	0.769455	0.128653	-0.625610
317	3348711324													0.663796	1.270850	1.976933	-0.003965	-0.978983	-0.203905	-0.655812	0.156479	-0.738529	0.754914	0.130795	-0.642649
318	3348727991													0.508059	1.093770	2.419197	-0.007299	-0.978981	-0.203820	-0.671124	0.155898	-0.724768	0.741310	0.131498	-0.658155
319	3348744658													0.049730	0.958385	1.486279	-0.011039	-0.978728	-0.204864	-0.684729	0.156704	-0.711751	0.728714	0.132419	-0.671894
320	3348761325													-0.118858	0.980427	1.073951	-0.014224	-0.978371	-0.206370	-0.696493	0.157779	-0.700002	0.717423	0.133778	-0.683673
321	3348777992													-0.332775	0.665026	1.477144	-0.016222	-0.977815	-0.208843	-0.706645	0.158983	-0.689476	0.707382	0.136393	-0.693547
322	3348794659													-0.197148	0.466536	1.960775	-0.017485	-0.977328	-0.211006	-0.715108	0.159719	-0.680522	0.698795	0.138993	-0.701688
323	3348811326													-0.055550	0.277651	2.445692	-0.016075	-0.976997	-0.212649	-0.721771	0.158517	-0.673735	0.691945	0.142654	-0.707716
324	3348827993													-0.338525	0.174708	2.681362	-0.017069	-0.976554	-0.214593	-0.726380	0.159597	-0.668506	0.687081	0.144465	-0.712074
325	3348844660													-0.296537	0.018324	2.381680	-0.019745	-0.975952	-0.217090	-0.728959	0.162659	-0.664952	0.684272	0.145120	-0.714641
326	3348861327													-0.155480	-0.030098	2.201163	-0.020325	-0.975525	-0.218949	-0.729451	0.164233	-0.664025	0.683731	0.146217	-0.714935
327	3348877994													-0.252315	-0.000990	2.579553	-0.017314	-0.975474	-0.219431	-0.727729	0.162791	-0.666265	0.685646	0.148151	-0.712700
328	3348894661													-0.548794	0.200319	2.724959	-0.014816	-0.975433	-0.219798	-0.723808	0.162122	-0.670685	0.689842	0.149155	-0.708428
329	3348911328													-0.533372	-0.015983	2.559910	-0.013778	-0.975347	-0.220245	-0.717706	0.163013	-0.676996	0.696209	0.148744	-0.702259
330	3348927995													-0.573951	0.022334	2.363621	-0.011728	-0.975268	-0.220716	-0.709480	0.163660	-0.685459	0.704628	0.148554	-0.693852
331	3348944662													-0.431816	0.141205	2.018663	-0.008437	-0.975329	-0.220594	-0.699227	0.163457	-0.695963	0.714850	0.148373	-0.683355
332	3348961329													-0.359423	0.250543	1.734185	-0.005057	-0.975447	-0.220176	-0.686862	0.163410	-0.708179	0.726770	0.147649	-0.670824
333	3348977996													-0.284253	0.446527	1.472355	-0.000883	-0.975556	-0.219751	-0.672624	0.163191	-0.721765	0.739984	0.147173	-0.656327
334	3348994663													-0.282675	0.530277	1.350009	0.003134	-0.975646	-0.219330	-0.656661	0.163408	-0.736271	0.754180	0.146333	-0.640156
335	3349011330													-0.304629	0.262386	1.164369	0.007471	-0.975764	-0.218697	-0.639062	0.163554	-0.751564	0.769119	0.145376	-0.622352
336	3349027997													-0.318461	0.478987	1.260243	0.012307	-0.975859	-0.218052	-0.619895	0.163661	-0.767428	0.784589	0.144615	-0.602916
337	3349044664													-0.403822	0.365727	1.135235	0.016556	-0.975852	-0.217803	-0.599007	0.164735	-0.783615	0.800573	0.143440	-0.581815
338	3349061331													-0.237016	0.348721	0.691939	0.020338	-0.975789	-0.217766	-0.576625	0.166487	-0.799866	0.816756	0.141837	-0.559278
339	3349077998													-0.479351	0.116163	0.648228	0.023302	-0.975677	-0.217970	-0.553317	0.169004	-0.815646	0.832645	0.139613	-0.535920
340	3349094665													-0.519533	-0.041045	0.225297	0.025350	-0.975682	-0.217719	-0.529018	0.171702	-0.831058	0.848232	0.136245	-0.511801
341	3349111332													-0.338784	0.030347	-0.070722	0.027938	-0.975960	-0.216152	-0.503567	0.173053	-0.846447	0.863504	0.132495	-0.486626
342	3349127999													-0.237954	0.054222	-0.162786	0.029758	-0.976305	-0.214342	-0.477219	0.174542	-0.861276	0.878280	0.127919	-0.460718
343	3349144666													0.050032	0.084238	-0.428540	0.031491	-0.976484	-0.213280	-0.450133	0.176665	-0.875311	0.892406	0.123568	-0.433984
344	3349161333													0.028860	0.345410	-0.619943	0.031090	-0.976187	-0.214691	-0.421838	0.181913	-0.888234	0.906138	0.118180	-0.406137
345	3349178000													-0.130294	0.520021	-0.848607	0.030679	-0.975929	-0.215921	-0.391415	0.187040	-0.901005	0.919703	0.112156	-0.376255
346	3349194667													-0.240898	0.327235	-1.347528	0.032071	-0.975721	-0.216658	-0.359803	0.190966	-0.913276	0.932477	0.107244	-0.344942
347	3349211334													-0.640130	0.471527	-1.246617	0.035873	-0.975393	-0.217533	-0.326957	0.194239	-0.924862	0.944358	0.104301	-0.311944
348	3349228001													-0.391413	0.209440	-1.839321	0.040921	-0.974854	-0.219057	-0.293896	0.197798	-0.935148	0.954961	0.102647	-0.278412
349	3349244668													-0.686270	0.150058	-1.226412	0.045817	-0.975104	-0.216965	-0.261403	0.197922	-0.944720	0.964142	0.100000	-0.245827
350	3349261335													-0.510324	-0.071048	-1.255095	0.053772	-0.976105	-0.210542	-0.229233	0.193150	-0.954015	0.971885	0.099563	-0.213369
351	3349278002													-0.342926	0.167935	-0.918856	0.062370	-0.977255	-0.202691	-0.196824	0.187054	-0.962430	0.978453	0.099921	-0.180680
352	3349294669													0.110135	0.027902	-1.469154	0.069259	-0.978506	-0.194242	-0.165832	0.180708	-0.969456	0.983719	0.099355	-0.149751
353	3349311336													0.413695	-0.093583	-0.990983	0.074254	-0.979813	-0.185612	-0.135399	0.174497	-0.975304	0.988005	0.097552	-0.119709
354	3349328003													0.862910	-0.508602	-1.144014	0.080099	-0.981378	-0.174589	-0.108401	0.165537	-0.980228	0.990875	0.097441	-0.093123
355	3349344670													0.938486	-0.485991	-0.876597	0.083663	-0.982646	-0.165553	-0.084483	0.158543	-0.983731	0.992906	0.096288	-0.069753
356	3349361337													0.948806	-0.725408	-1.301255	0.084357	-0.983752	-0.158482	-0.065548	0.153226	-0.986015	0.994277	0.093565	-0.051557
357	3349378004													0.935253	-0.626651	-0.767217	0.081924	-0.984599	-0.154443	-0.051164	0.150605	-0.987269	0.995324	0.088783	-0.038038
358	3349394671													0.824819	-0.328603	-0.191101	0.078540	-0.985735	-0.148857	-0.038694	0.146192	-0.988499	0.996160	0.083396	-0.026661
359	3349411338													0.987034	0.281356	-0.339410	0.076329	-0.986823	-0.142668	-0.029267	0.140806	-0.989604	0.996653	0.079711	-0.018133
360	3349428005													0.478283	-0.086151	-0.004182	0.074094	-0.987952	-0.135872	-0.022339	0.134568	-0.990652	0.997001	0.076437	-0.012099
361	3349444672													-0.037565	-0.042613	-0.036978	0.071857	-0.988951	-0.129660	-0.016954	0.128767	-0.991530	0.997271	0.073446	-0.007514
362	3349461339													-0.456008	-0.409952	-0.084919	0.069960	-0.989576	-0.125874	-0.012553	0.125300	-0.992040	0.997471	0.070983	-0.003656
363	3349478006													-0.396357	-0.175523	-0.003466	0.068094	-0.990070	-0.122985	-0.007608	0.122753	-0.992408	0.997650	0.068512	0.000827
364	3349494673													-0.577197	-0.245434	0.329444	0.066601	-0.990538	-0.119995	-0.002360	0.120106	-0.992758	0.997777	0.066402	0.005662
365	3349511340													-0.284138	-0.365909	0.210645	0.064871	-0.990910	-0.117854	0.002855	0.118287	-0.992975	0.997890	0.064079	0.010502
366	3349528007													-0.160448	-0.414727	0.019003	0.063412	-0.991036	-0.117590	0.007930	0.118324	-0.992943	0.997956	0.062032	0.015362
367	3349544674													0.004703	-0.299246	-0.092336	0.061912	-0.990882	-0.119663	0.012460	0.120651	-0.992617	0.998004	0.059964	0.019816
368	3349561341													-0.099964	-0.105514	-0.104729	0.060658	-0.990511	-0.123324	0.017253	0.124573	-0.992060	0.998009	0.058049	0.024645
369	3349578008													0.088659	0.096641	-0.307500	0.058757	-0.990113	-0.127374	0.021882	0.128842	-0.991424	0.998032	0.055466	0.029236
370	3349594675													-0.065249	-0.266827	-0.124285	0.057403	-0.989646	-0.131553	0.026473	0.133233	-0.990731	0.998000	0.053388	0.033847
371	3349611342													-0.150850	-0.218459	-0.056069	0.055985	-0.989252	-0.135079	0.031087	0.136953	-0.990090	0.997947	0.051231	0.038421
372	3349628009													-0.230301	-0.027997	0.031023	0.055047	-0.988914	-0.137906	0.035487	0.139966	-0.989520	0.997853	0.049576	0.042798
373	3349644676													-0.218406	0.015847	-0.028735	0.054584	-0.988612	-0.140236	0.039663	0.142481	-0.989002	0.997721	0.048421	0.046989
374	3349661343													-0.306415	0.092392	0.207473	0.054490	-0.988360	-0.142039	0.043681	0.144473	-0.988544	0.997558	0.047661	0.051045
375	3349678010													-0.186900	0.063155	0.107764	0.054122	-0.988133	-0.143748	0.047512	0.146344	-0.988092	0.997403	0.046648	0.054869
376	3349694677													-0.003556	0.144349	-0.041141	0.053576	-0.988030	-0.144657	0.050694	0.147369	-0.987782	0.997276	0.045589	0.057983
377	3349711344													0.290381	0.202187	-0.095860	0.052923	-0.988056	-0.144719	0.053542	0.147522	-0.987609	0.997162	0.044519	0.060710
378	3349728011													0.374199	0.136009	-0.059672	0.052608	-0.987962	-0.145475	0.055865	0.148360	-0.987354	0.997051	0.043816	0.062997
379	3349744678													0.384400	0.188966	0.007993	0.052201	-0.987750	-0.147057	0.057405	0.149982	-0.987021	0.996985	0.043081	0.064531
380	3349761345													0.268209	0.307218	-0.013461	0.051785	-0.987585	-0.148304	0.058321	0.151241	-0.986775	0.996954	0.042451	0.065429
381	3349778012													0.116463	0.355822	0.146845	0.051228	-0.987569	-0.148605	0.058708	0.151521	-0.986709	0.996960	0.041822	0.065740
