sep=,
DeviceTag:,Yao
FirmwareVersion:,2.0.0
AppVersion:,2021.0
SyncStatus:,Synced
OutputRate:,60Hz
FilterProfile:,General
Measurement Mode:,Sensor fusion Mode - Extended(Quaternion)
StartTime: ,2021-08-20_20:21:13_835 GMT+8
© Xsens Technologies B. V. 2005-2021

PacketCounter,SampleTimeFine,Quat_W,Quat_X,Quat_Y,Quat_Z,FreeAcc_X,FreeAcc_Y,FreeAcc_Z,Status
1,3343427885,-0.679148,0.020083,-0.728430,0.088013,0.038134,0.002781,0.003076,0
2,3343444552,-0.679107,0.019872,-0.728432,0.088359,0.034949,0.051546,-0.029320,0
3,3343461219,-0.679049,0.019696,-0.728457,0.088636,0.000936,0.042526,-0.043269,0
4,3343477886,-0.678965,0.019557,-0.728520,0.088799,-0.000543,0.016400,-0.042402,0
5,3343494553,-0.678895,0.019406,-0.728565,0.088994,0.023957,0.023935,-0.015534,0
6,3343511220,-0.678841,0.019245,-0.728592,0.089219,0.024864,0.016514,-0.016863,0
7,3343527887,-0.678781,0.019088,-0.728626,0.089438,0.008663,-0.006687,-0.010477,0
8,3343544554,-0.678716,0.018947,-0.728666,0.089631,0.015390,-0.043463,0.011496,0
9,3343561221,-0.678673,0.018834,-0.728688,0.089799,0.019230,-0.048346,-0.002689,0
10,3343577888,-0.678642,0.018768,-0.728702,0.089936,0.019666,-0.039679,0.020360,0
11,3343594555,-0.678604,0.018708,-0.728719,0.090093,0.022671,-0.028066,0.008607,0
12,3343611222,-0.678586,0.018665,-0.728716,0.090260,0.022928,-0.022700,-0.011446,0
13,3343627889,-0.678548,0.018631,-0.728736,0.090399,0.006871,-0.036601,-0.028000,0
14,3343644556,-0.678540,0.018632,-0.728729,0.090516,-0.008704,-0.032929,-0.032548,0
15,3343661223,-0.678539,0.018638,-0.728714,0.090641,0.019067,-0.003024,-0.016333,0
16,3343677890,-0.678543,0.018653,-0.728693,0.090782,0.025446,0.020915,-0.001668,0
17,3343694557,-0.678519,0.018668,-0.728699,0.090905,0.032013,-0.007344,0.008485,0
18,3343711224,-0.678483,0.018669,-0.728723,0.090979,0.012141,-0.018685,0.003264,0
19,3343727891,-0.678452,0.018667,-0.728745,0.091032,0.014045,-0.000932,0.019670,0
20,3343744558,-0.678441,0.018661,-0.728748,0.091091,0.020596,0.001987,0.003952,0
21,3343761225,-0.678412,0.018646,-0.728766,0.091171,0.012298,0.017234,-0.007376,0
22,3343777892,-0.678396,0.018630,-0.728769,0.091268,0.013296,0.011011,-0.026635,0
23,3343794559,-0.678381,0.018608,-0.728770,0.091373,0.019987,0.002165,-0.010553,0
24,3343811226,-0.678367,0.018575,-0.728769,0.091496,0.013334,0.003729,-0.019320,0
25,3343827893,-0.678349,0.018550,-0.728771,0.091617,0.034633,-0.003001,-0.008073,0
26,3343844560,-0.678334,0.018512,-0.728772,0.091729,0.035057,0.002807,-0.003157,0
27,3343861227,-0.678321,0.018482,-0.728772,0.091827,0.028818,0.012790,0.002150,0
28,3343877894,-0.678291,0.018463,-0.728788,0.091931,0.023462,0.016028,-0.002743,0
29,3343894561,-0.678269,0.018418,-0.728794,0.092052,0.048608,0.018783,-0.011222,0
30,3343911228,-0.678245,0.018427,-0.728807,0.092125,0.024311,0.015532,-0.018709,0
31,3343927895,-0.678231,0.018421,-0.728812,0.092196,0.032096,0.015796,-0.013979,0
32,3343944562,-0.678215,0.018414,-0.728819,0.092257,0.044599,0.017724,-0.034803,0
33,3343961229,-0.678214,0.018410,-0.728813,0.092301,0.030097,0.014166,-0.016468,0
34,3343977896,-0.678225,0.018365,-0.728795,0.092372,0.045373,0.010189,-0.014753,0
35,3343994563,-0.678237,0.018309,-0.728777,0.092441,0.033726,0.018704,-0.004266,0
36,3344011230,-0.678255,0.018262,-0.728761,0.092449,0.018780,0.003389,-0.017779,0
37,3344027897,-0.678320,0.018240,-0.728707,0.092397,0.027813,-0.001793,-0.014997,0
38,3344044564,-0.678405,0.018245,-0.728641,0.092295,0.023089,0.014692,-0.011633,0
39,3344061231,-0.678538,0.018252,-0.728534,0.092160,0.022951,0.022151,-0.023084,0
40,3344077898,-0.678697,0.018268,-0.728408,0.091988,0.031090,0.011542,-0.011765,0
41,3344094565,-0.678860,0.018262,-0.728276,0.091825,0.033396,0.022641,-0.000494,0
42,3344111232,-0.679045,0.018230,-0.728128,0.091640,0.029869,0.003610,0.014180,0
43,3344127899,-0.679267,0.018263,-0.727956,0.091356,0.005194,0.025571,0.011584,0
44,3344144566,-0.679473,0.018350,-0.727803,0.091015,0.001324,0.026359,-0.015354,0
45,3344161233,-0.679655,0.018482,-0.727677,0.090648,0.003017,-0.010621,-0.029382,0
46,3344177900,-0.679789,0.018668,-0.727598,0.090226,0.025550,-0.024828,-0.039959,0
47,3344194567,-0.679916,0.018859,-0.727524,0.089832,0.011624,-0.009744,-0.014965,0
48,3344211234,-0.680038,0.019112,-0.727452,0.089438,0.007040,0.025008,0.001964,0
49,3344227901,-0.680142,0.019359,-0.727380,0.089181,0.036945,0.037192,-0.010367,0
50,3344244568,-0.680165,0.019547,-0.727377,0.088981,0.044548,0.008567,0.003560,0
51,3344261235,-0.680165,0.019719,-0.727400,0.088763,-0.003310,0.018093,0.028282,0
52,3344277902,-0.680179,0.019926,-0.727414,0.088487,0.000903,0.034510,0.005368,0
53,3344294569,-0.680219,0.020068,-0.727398,0.088284,0.009862,0.054281,0.003211,0
54,3344311236,-0.680262,0.020260,-0.727382,0.088041,-0.008723,0.063757,-0.029222,0
55,3344327903,-0.680288,0.020446,-0.727394,0.087698,-0.029319,0.032155,-0.063075,0
56,3344344570,-0.680321,0.020652,-0.727410,0.087259,-0.037051,0.029677,-0.020412,0
57,3344361237,-0.680429,0.020773,-0.727349,0.086898,0.000715,0.063262,-0.004569,0
58,3344377904,-0.680529,0.020874,-0.727289,0.086583,0.006219,0.044148,-0.011868,0
59,3344394571,-0.680607,0.020966,-0.727251,0.086277,0.001379,0.021198,-0.031745,0
60,3344411238,-0.680709,0.021050,-0.727189,0.085976,0.006668,-0.013235,-0.011500,0
61,3344427905,-0.680820,0.021164,-0.727118,0.085664,0.011010,-0.008041,0.020698,0
62,3344444572,-0.680903,0.021335,-0.727078,0.085295,-0.003312,-0.011160,0.038630,0
63,3344461239,-0.680981,0.021523,-0.727043,0.084931,-0.010465,-0.007078,-0.010157,0
64,3344477906,-0.681079,0.021670,-0.726987,0.084582,0.004022,-0.012725,-0.028790,0
65,3344494573,-0.681161,0.021816,-0.726944,0.084246,-0.040993,-0.020107,-0.038014,0
66,3344511240,-0.681250,0.021938,-0.726891,0.083958,-0.007994,0.004815,-0.041793,0
67,3344527907,-0.681330,0.021987,-0.726837,0.083762,0.021807,-0.007403,-0.045469,0
68,3344544574,-0.681397,0.022060,-0.726791,0.083597,-0.013042,-0.013079,-0.032817,0
69,3344561241,-0.681464,0.022155,-0.726745,0.083420,0.007389,-0.018205,0.001783,0
70,3344577908,-0.681497,0.022247,-0.726729,0.083269,-0.009514,-0.008714,0.010658,0
71,3344594575,-0.681515,0.022332,-0.726727,0.083119,-0.006428,-0.012717,0.001321,0
72,3344611242,-0.681520,0.022408,-0.726734,0.083000,-0.007752,-0.004122,-0.025101,0
73,3344627909,-0.681537,0.022464,-0.726729,0.082889,-0.011765,-0.009784,-0.030698,0
74,3344644576,-0.681580,0.022491,-0.726692,0.082850,-0.014882,-0.013092,-0.013686,0
75,3344661243,-0.681616,0.022478,-0.726658,0.082853,0.002721,0.003926,-0.015780,0
76,3344677910,-0.681634,0.022428,-0.726638,0.082897,-0.031052,0.016439,-0.012074,0
77,3344694577,-0.681633,0.022356,-0.726633,0.082964,-0.026287,0.008575,-0.019297,0
78,3344711244,-0.681635,0.022267,-0.726622,0.083075,-0.020396,0.025350,-0.015321,0
79,3344727911,-0.681622,0.022133,-0.726618,0.083253,-0.011088,0.019437,-0.014349,0
80,3344744578,-0.681606,0.021995,-0.726615,0.083441,-0.041217,0.026199,-0.022964,0
81,3344761245,-0.681581,0.021827,-0.726620,0.083646,-0.034740,0.042027,-0.028827,0
82,3344777912,-0.681558,0.021619,-0.726620,0.083884,-0.035514,0.033734,-0.007440,0
83,3344794579,-0.681531,0.021404,-0.726623,0.084137,-0.029342,0.016189,-0.012248,0
84,3344811246,-0.681502,0.021140,-0.726623,0.084442,-0.014565,0.019138,-0.009267,0
85,3344827913,-0.681469,0.020832,-0.726621,0.084801,-0.021489,0.012904,-0.006922,0
86,3344844580,-0.681424,0.020473,-0.726625,0.085211,-0.032396,0.019469,-0.019556,0
87,3344861247,-0.681370,0.020091,-0.726635,0.085647,-0.035707,0.023942,-0.006160,0
88,3344877914,-0.681312,0.019727,-0.726651,0.086054,-0.028196,0.043431,-0.015857,0
89,3344894581,-0.681253,0.019348,-0.726671,0.086442,-0.041643,0.034695,-0.009858,0
90,3344911248,-0.681197,0.019009,-0.726693,0.086773,-0.050142,0.014428,-0.012155,0
91,3344927915,-0.681173,0.018709,-0.726689,0.087053,-0.029485,-0.005639,0.001760,0
92,3344944582,-0.681153,0.018469,-0.726688,0.087271,-0.017691,-0.013142,0.019446,0
93,3344961249,-0.681099,0.018241,-0.726723,0.087449,-0.011068,-0.028651,0.052202,0
94,3344977916,-0.681007,0.018050,-0.726797,0.087593,-0.028654,-0.018380,0.054961,0
95,3344994583,-0.680887,0.017952,-0.726903,0.087667,-0.020366,0.006070,0.011406,0
96,3345011250,-0.680794,0.017877,-0.726982,0.087746,-0.040406,-0.003291,-0.007918,0
97,3345027917,-0.680704,0.017860,-0.727068,0.087740,-0.064690,0.015660,0.022848,0
98,3345044584,-0.680654,0.017935,-0.727132,0.087581,-0.020178,-0.021692,0.014484,0
99,3345061251,-0.680575,0.018046,-0.727231,0.087340,0.024759,-0.009645,0.002477,0
100,3345077918,-0.680481,0.018164,-0.727349,0.087069,0.006277,0.016825,0.006004,0
101,3345094585,-0.680402,0.018337,-0.727443,0.086867,-0.012408,0.037357,-0.021593,0
102,3345111252,-0.680297,0.018530,-0.727562,0.086647,0.035995,0.017374,-0.007441,0
103,3345127919,-0.680168,0.018724,-0.727711,0.086371,-0.033461,-0.005298,0.027041,0
104,3345144586,-0.680028,0.019000,-0.727882,0.085971,-0.041600,-0.000151,-0.008504,0
105,3345161253,-0.679868,0.019212,-0.728069,0.085611,0.039711,-0.005175,0.002789,0
106,3345177920,-0.679710,0.019314,-0.728235,0.085425,-0.016149,0.039883,-0.040384,0
107,3345194587,-0.679598,0.019442,-0.728361,0.085211,-0.020143,0.020723,-0.048834,0
108,3345211254,-0.679497,0.019533,-0.728482,0.084965,-0.020799,-0.003669,-0.069189,0
109,3345227921,-0.679395,0.019564,-0.728600,0.084760,-0.002287,-0.012242,-0.040604,0
110,3345244588,-0.679320,0.019517,-0.728686,0.084632,-0.003011,0.006538,-0.026049,0
111,3345261255,-0.679279,0.019461,-0.728740,0.084509,-0.022199,0.015606,-0.029807,0
112,3345277922,-0.679250,0.019376,-0.728783,0.084388,0.010058,-0.008860,-0.034004,0
113,3345294589,-0.679215,0.019288,-0.728833,0.084257,-0.004908,-0.020669,-0.027683,0
114,3345311256,-0.679147,0.019229,-0.728912,0.084138,-0.026085,-0.031471,0.008449,0
115,3345327923,-0.679016,0.019206,-0.729053,0.083976,-0.023934,-0.048645,0.031983,0
116,3345344590,-0.678809,0.019212,-0.729260,0.083852,-0.093229,-0.075301,0.090720,0
117,3345361257,-0.678448,0.019252,-0.729619,0.083638,-0.128507,-0.125438,0.125430,0
118,3345377924,-0.677860,0.019364,-0.730198,0.083337,-0.162125,-0.149943,0.197370,0
119,3345394591,-0.676979,0.019486,-0.731045,0.083041,-0.207042,-0.133095,0.310403,0
120,3345411258,-0.675839,0.019483,-0.732123,0.082827,-0.266099,-0.058011,0.396953,0
121,3345427925,-0.674415,0.019327,-0.733450,0.082726,-0.355843,0.022748,0.469786,0
122,3345444592,-0.672725,0.019095,-0.735012,0.082680,-0.386373,0.033029,0.426418,0
123,3345461259,-0.670668,0.018618,-0.736887,0.082814,-0.448672,0.039645,0.456007,0
124,3345477926,-0.668174,0.017945,-0.739128,0.083145,-0.584156,-0.000785,0.489491,0
125,3345494593,-0.665198,0.017158,-0.741779,0.083565,-0.684703,-0.038100,0.489599,0
126,3345511260,-0.662129,0.016316,-0.744472,0.084159,-0.691757,-0.028817,0.288297,0
127,3345527927,-0.658935,0.015328,-0.747269,0.084624,-0.802334,-0.064028,0.269678,0
128,3345544594,-0.655396,0.014521,-0.750397,0.084567,-0.856766,-0.188664,0.185600,0
129,3345561261,-0.651553,0.013848,-0.753783,0.084264,-0.852078,-0.083524,0.054289,0
130,3345577928,-0.647024,0.013280,-0.757801,0.083210,-0.797649,0.073611,0.135135,0
131,3345594595,-0.641764,0.012902,-0.762441,0.081599,-0.890313,-0.226489,0.163474,0
132,3345611262,-0.635474,0.012790,-0.767983,0.078820,-0.975633,-0.134715,-0.019812,0
133,3345627929,-0.628403,0.013137,-0.774184,0.074689,-1.074053,-0.376842,0.151835,0
134,3345644596,-0.620247,0.014122,-0.781232,0.069082,-1.290498,-0.437172,0.297626,0
135,3345661263,-0.611453,0.015915,-0.788672,0.062209,-1.074706,-0.423132,-0.453300,0
136,3345677930,-0.602352,0.018701,-0.796147,0.054533,-1.268696,-0.565395,-1.178896,0
137,3345694597,-0.593166,0.022492,-0.803393,0.047021,-0.864725,-0.473032,-2.139283,0
138,3345711264,-0.583550,0.027090,-0.810585,0.041093,-0.417146,-0.001655,-2.870996,0
139,3345727931,-0.573230,0.031243,-0.817937,0.037578,-0.040289,1.110433,-3.333523,0
140,3345744598,-0.562108,0.034567,-0.825585,0.035376,-0.343955,1.382041,-3.191195,0
141,3345761265,-0.549936,0.036639,-0.833760,0.032784,-0.040407,0.808524,-3.057967,0
142,3345777932,-0.536954,0.038040,-0.842220,0.030029,-0.431085,-0.241511,-3.303379,0
143,3345794599,-0.523625,0.039193,-0.850620,0.026993,-0.538507,-0.809333,-3.388897,0
144,3345811266,-0.509983,0.040222,-0.858930,0.023252,-0.486457,-0.888990,-3.424344,0
145,3345827933,-0.496123,0.041493,-0.867044,0.019408,-0.467771,-0.483599,-3.665912,0
146,3345844600,-0.482638,0.043336,-0.874617,0.015188,0.237736,-0.104712,-3.339254,0
147,3345861267,-0.469656,0.044694,-0.881646,0.011332,0.827242,-0.028667,-2.980845,0
148,3345877934,-0.457173,0.045771,-0.888171,0.007248,0.801871,-0.065882,-3.047112,0
149,3345894601,-0.445151,0.046614,-0.894237,0.003101,1.011581,-0.023865,-2.705042,0
150,3345911268,-0.433519,0.047101,-0.899913,-0.001355,0.927261,-0.214546,-2.266347,0
151,3345927935,-0.422616,0.047541,-0.905045,-0.005705,0.903615,-0.004577,-1.578606,0
152,3345944602,-0.413109,0.047798,-0.909386,-0.008695,1.060971,0.171672,-0.723464,0
153,3345961269,-0.404466,0.047666,-0.913256,-0.010017,1.306530,0.284809,0.055712,0
154,3345977936,-0.396287,0.047444,-0.916844,-0.010270,1.282121,0.643692,1.080709,0
155,3345994603,-0.388822,0.047092,-0.920058,-0.009737,1.424607,0.290249,1.458039,0
156,3346011270,-0.382132,0.046086,-0.922906,-0.009908,1.274053,-0.219248,2.158087,0
157,3346027937,-0.375993,0.045015,-0.925459,-0.011450,1.187980,-0.711909,2.829689,0
158,3346044604,-0.370971,0.044249,-0.927492,-0.013551,1.358337,-0.510673,3.489459,0
159,3346061271,-0.366970,0.043827,-0.929075,-0.015301,1.003425,-0.060390,3.944055,0
160,3346077938,-0.363889,0.043266,-0.930295,-0.016295,1.220283,0.563287,4.791368,0
161,3346094605,-0.362207,0.042560,-0.930980,-0.016538,1.054911,0.502926,5.233604,0
162,3346111272,-0.361668,0.041985,-0.931208,-0.016969,1.239861,0.126954,5.388802,0
163,3346127939,-0.362286,0.041452,-0.930982,-0.017493,1.349196,0.224645,6.065895,0
164,3346144606,-0.363949,0.041122,-0.930333,-0.018238,1.364784,0.239978,6.350317,0
165,3346161273,-0.366437,0.041154,-0.929342,-0.018839,1.373922,0.328897,6.301846,0
166,3346177940,-0.369584,0.041306,-0.928083,-0.019126,1.377434,0.386271,6.308693,0
167,3346194607,-0.373491,0.041725,-0.926500,-0.019060,1.223391,0.238096,6.138783,0
168,3346211274,-0.378054,0.042363,-0.924619,-0.019018,1.241552,0.165622,6.002375,0
169,3346227941,-0.383667,0.043186,-0.922267,-0.018959,1.233593,0.054906,5.416286,0
170,3346244608,-0.390214,0.044007,-0.919475,-0.019079,1.241211,0.067388,4.671887,0
171,3346261275,-0.397876,0.044695,-0.916157,-0.018851,1.314702,0.149416,4.000168,0
172,3346277942,-0.406670,0.045362,-0.912269,-0.018152,1.357927,0.133242,2.976928,0
173,3346294609,-0.416396,0.045990,-0.907864,-0.016883,1.509122,0.187972,2.088458,0
174,3346311276,-0.426242,0.046745,-0.903266,-0.015696,1.528356,0.081231,1.113200,0
175,3346327943,-0.436369,0.047719,-0.898381,-0.014786,1.430640,0.047620,0.079843,0
176,3346344610,-0.446496,0.049218,-0.893321,-0.014079,1.339871,0.030668,-0.831841,0
177,3346361277,-0.457137,0.051193,-0.887824,-0.013248,1.180845,-0.140740,-2.118649,0
178,3346377944,-0.468289,0.053166,-0.881889,-0.012349,0.657107,0.091871,-3.103077,0
179,3346394611,-0.480018,0.055145,-0.875449,-0.011528,0.675866,0.101663,-3.784210,0
180,3346411278,-0.492419,0.057328,-0.868402,-0.010863,0.499080,0.289916,-4.310518,0
181,3346427945,-0.505016,0.059579,-0.860985,-0.010784,0.340768,0.478839,-4.769065,0
182,3346444612,-0.517472,0.061824,-0.853399,-0.010646,0.083067,0.525796,-5.053108,0
183,3346461279,-0.529838,0.063940,-0.845622,-0.010449,-0.031816,0.417440,-5.238995,0
184,3346477946,-0.541965,0.065843,-0.837759,-0.010045,-0.401141,0.333324,-5.306928,0
185,3346494613,-0.553702,0.067576,-0.829916,-0.009487,-0.496385,0.354389,-5.179090,0
186,3346511280,-0.564662,0.069057,-0.822384,-0.008620,-0.700761,0.340302,-4.570131,0
187,3346527947,-0.574890,0.070220,-0.815183,-0.007068,-0.868528,0.409688,-4.122457,0
188,3346544614,-0.584297,0.070902,-0.808423,-0.004957,-1.195463,0.457747,-3.465491,0
189,3346561281,-0.592719,0.071452,-0.802229,-0.003059,-1.412813,0.319867,-2.343940,0
190,3346577948,-0.600588,0.071783,-0.796331,-0.001185,-1.455358,0.191704,-1.639954,0
191,3346594615,-0.607872,0.071976,-0.790768,0.000794,-1.408772,0.135420,-0.651067,0
192,3346611282,-0.614451,0.072067,-0.785653,0.002967,-1.291056,0.270716,0.229692,0
193,3346627949,-0.620632,0.071829,-0.780789,0.005232,-1.005184,0.026990,0.628044,0
194,3346644616,-0.626286,0.071182,-0.776305,0.007280,-1.105608,0.400836,0.973476,0
195,3346661283,-0.631683,0.070179,-0.771986,0.009606,-0.958391,0.441695,0.855103,0
196,3346677950,-0.636303,0.068778,-0.768282,0.011528,-0.786266,0.247812,1.109348,0
197,3346694617,-0.640183,0.067189,-0.765161,0.013539,-1.040911,0.177757,0.707774,0
198,3346711284,-0.643306,0.065789,-0.762619,0.015606,-1.148231,0.008336,0.546904,0
199,3346727951,-0.645749,0.064510,-0.760617,0.017649,-1.215337,-0.163076,0.335825,0
200,3346744618,-0.647445,0.063425,-0.759223,0.019394,-1.385207,-0.147106,0.260326,0
201,3346761285,-0.648701,0.062327,-0.758199,0.020968,-1.270114,0.057801,0.347479,0
202,3346777952,-0.649556,0.061183,-0.757515,0.022531,-1.179420,0.233613,0.221127,0
203,3346794619,-0.650075,0.060038,-0.757114,0.024043,-1.089505,0.193587,0.025277,0
204,3346811286,-0.650352,0.058710,-0.756927,0.025671,-1.094935,0.228480,-0.012453,0
205,3346827953,-0.650394,0.057271,-0.756947,0.027228,-1.018821,0.252693,0.125370,0
206,3346844620,-0.650030,0.055649,-0.757332,0.028539,-0.959365,0.278457,0.266765,0
207,3346861287,-0.649128,0.053934,-0.758192,0.029510,-0.938158,0.222051,0.406230,0
208,3346877954,-0.647347,0.052477,-0.759800,0.029899,-0.942841,0.270142,0.589435,0
209,3346894621,-0.645214,0.050651,-0.761714,0.030464,-0.984942,0.135258,0.510000,0
210,3346911288,-0.642190,0.048946,-0.764371,0.030592,-1.079167,-0.006625,0.633367,0
211,3346927955,-0.638357,0.047171,-0.767688,0.030527,-1.158600,-0.120465,0.597800,0
212,3346944622,-0.633457,0.045344,-0.771861,0.030132,-1.232169,-0.135490,0.643748,0
213,3346961289,-0.627495,0.043366,-0.776830,0.030122,-1.355288,-0.165650,0.550638,0
214,3346977956,-0.619811,0.041076,-0.783091,0.030297,-1.331873,-0.200427,0.372881,0
215,3346994623,-0.610153,0.038878,-0.790742,0.030523,-1.211743,-0.319127,-0.010913,0
216,3347011290,-0.598818,0.036824,-0.799454,0.030608,-1.152423,-0.587503,-1.094207,0
217,3347027957,-0.586092,0.034999,-0.808932,0.030047,-0.812459,-0.789938,-2.276275,0
218,3347044624,-0.572313,0.034188,-0.818854,0.027733,-0.824041,-1.189545,-3.640440,0
219,3347061291,-0.557871,0.035047,-0.828880,0.022600,-0.438554,-1.284235,-4.803956,0
220,3347077958,-0.543265,0.036001,-0.838616,0.017106,-0.144597,-0.301925,-5.103911,0
221,3347094625,-0.528770,0.037526,-0.847863,0.011113,-0.082257,0.227991,-5.153358,0
222,3347111292,-0.513934,0.039456,-0.856912,0.004297,-0.306093,0.573633,-4.713952,0
223,3347127959,-0.499030,0.041825,-0.865575,-0.001650,-0.109718,0.030532,-4.503211,0
224,3347144626,-0.484303,0.044209,-0.873770,-0.004934,-0.373198,0.403450,-4.167323,0
225,3347161293,-0.469956,0.045631,-0.881488,-0.006332,0.341778,0.347825,-2.872659,0
226,3347177960,-0.455931,0.045578,-0.888816,-0.007585,1.039803,-0.320271,-2.546089,0
227,3347194627,-0.442102,0.045373,-0.895770,-0.009248,1.166708,-0.753033,-3.165890,0
228,3347211294,-0.428884,0.045628,-0.902142,-0.010920,0.930239,-0.520321,-2.591931,0
229,3347227961,-0.416262,0.046346,-0.907979,-0.012472,1.351514,-0.041793,-1.454939,0
230,3347244628,-0.404271,0.047469,-0.913299,-0.014080,1.657876,0.441547,-1.112640,0
231,3347261295,-0.392775,0.048828,-0.918224,-0.014549,1.471128,0.637837,-0.767022,0
232,3347277962,-0.381868,0.049666,-0.922777,-0.014002,1.164141,0.303035,-0.070106,0
233,3347294629,-0.371575,0.049208,-0.926995,-0.013903,1.125637,-0.318990,0.675010,0
234,3347311296,-0.362171,0.048343,-0.930750,-0.014233,1.266769,-0.630800,1.319165,0
235,3347327963,-0.353914,0.047545,-0.933955,-0.014670,1.364982,-0.497968,1.705647,0
236,3347344630,-0.346646,0.047288,-0.936679,-0.015325,1.397122,-0.074716,2.416902,0
237,3347361297,-0.340256,0.046979,-0.939029,-0.015679,1.535529,0.123355,2.600533,0
238,3347377964,-0.334795,0.046433,-0.941022,-0.015372,1.592347,0.375899,3.291365,0
239,3347394631,-0.330255,0.045782,-0.942662,-0.015062,1.081610,0.084570,3.858445,0
240,3347411298,-0.326935,0.044825,-0.943866,-0.014932,1.110497,-0.178768,4.648049,0
241,3347427965,-0.324601,0.044666,-0.944675,-0.015190,1.000350,-0.025787,5.068747,0
242,3347444632,-0.323538,0.044914,-0.945019,-0.015749,0.926473,0.230441,5.501777,0
243,3347461299,-0.323749,0.045365,-0.944912,-0.016500,0.997211,0.270345,5.953904,0
244,3347477966,-0.325216,0.045892,-0.944367,-0.017391,1.158366,0.203888,6.346548,0
245,3347494633,-0.327977,0.046455,-0.943366,-0.018322,1.268191,0.202276,6.520229,0
246,3347511300,-0.331826,0.047029,-0.941969,-0.019416,1.234610,0.097845,6.547529,0
247,3347527967,-0.336693,0.047612,-0.940185,-0.020619,1.006104,-0.047669,6.532948,0
248,3347544634,-0.342545,0.048114,-0.938016,-0.021800,0.947390,0.212480,6.655266,0
249,3347561301,-0.349542,0.048665,-0.935376,-0.022951,0.711556,0.207184,6.209949,0
250,3347577968,-0.357774,0.049073,-0.932208,-0.024075,0.491014,0.077224,5.787820,0
251,3347594635,-0.367665,0.048931,-0.928342,-0.024721,0.641086,-0.042649,5.225164,0
252,3347611302,-0.378921,0.048206,-0.923854,-0.024331,1.216871,0.185114,4.789926,0
253,3347627969,-0.390711,0.047196,-0.918994,-0.023848,1.387443,0.477549,4.467744,0
254,3347644636,-0.402870,0.046045,-0.913796,-0.023553,1.438979,0.683485,3.845731,0
255,3347661303,-0.415073,0.045203,-0.908374,-0.023005,1.598989,0.461126,2.981705,0
256,3347677970,-0.426886,0.044823,-0.902922,-0.022236,1.547120,0.547036,2.039736,0
257,3347694637,-0.438242,0.044953,-0.897478,-0.021431,1.486229,0.318721,0.665962,0
258,3347711304,-0.449291,0.045791,-0.891974,-0.020612,1.306094,0.012296,-0.918224,0
259,3347727971,-0.460456,0.047231,-0.886215,-0.019387,1.310692,-0.281831,-2.427715,0
260,3347744638,-0.472485,0.048854,-0.879813,-0.017392,0.965713,-0.161653,-4.321288,0
261,3347761305,-0.485248,0.050721,-0.872777,-0.014993,0.269995,-0.100614,-5.691017,0
262,3347777972,-0.498938,0.052532,-0.864958,-0.012326,0.399963,-0.001070,-6.914343,0
263,3347794639,-0.513550,0.054112,-0.856302,-0.009374,-0.352661,-0.051973,-8.106554,0
264,3347811306,-0.528623,0.055756,-0.846992,-0.007499,-0.478515,0.145427,-8.528181,0
265,3347827973,-0.543209,0.057277,-0.837625,-0.005466,-0.600290,0.162560,-8.169811,0
266,3347844640,-0.556843,0.059224,-0.828498,-0.003325,-0.926619,-0.262357,-7.562944,0
267,3347861307,-0.569589,0.060992,-0.819665,-0.000681,-1.264617,-0.065765,-6.537015,0
268,3347877974,-0.580856,0.062701,-0.811586,0.002313,-1.754673,0.117518,-5.487047,0
269,3347894641,-0.591170,0.064130,-0.803978,0.005139,-1.942582,0.333470,-4.344066,0
270,3347911308,-0.600171,0.065033,-0.797190,0.007476,-2.421178,0.109308,-2.890661,0
271,3347927975,-0.608849,0.066115,-0.790468,0.009686,-2.228931,-0.247163,-1.345101,0
272,3347944642,-0.616778,0.067712,-0.784125,0.012248,-2.080305,-0.344236,-0.392776,0
273,3347961309,-0.624198,0.068952,-0.778074,0.015022,-1.520875,0.029121,1.270010,0
274,3347977976,-0.631802,0.068635,-0.771855,0.018944,-0.939903,0.251147,2.444102,0
275,3347994643,-0.638494,0.067108,-0.766339,0.023452,-0.586978,0.418522,2.765206,0
276,3348011310,-0.643605,0.064792,-0.762123,0.027278,-0.698213,0.677870,2.116907,0
277,3348027977,-0.646816,0.062153,-0.759501,0.030445,-0.713946,0.380366,1.867304,0
278,3348044644,-0.648530,0.058949,-0.758174,0.033309,-1.084922,0.339259,1.444326,0
279,3348061311,-0.648855,0.055800,-0.758052,0.035107,-1.135186,0.053626,1.102899,0
280,3348077978,-0.648542,0.052641,-0.758488,0.036338,-1.325398,-0.070462,0.295012,0
281,3348094645,-0.647904,0.050018,-0.759168,0.037213,-1.348675,-0.236205,-0.516879,0
282,3348111312,-0.647076,0.048165,-0.759965,0.037790,-1.294829,-0.286998,-0.830294,0
283,3348127979,-0.646240,0.047151,-0.760729,0.038009,-1.064542,-0.347509,-0.742918,0
284,3348144646,-0.645336,0.046930,-0.761511,0.037982,-0.827680,-0.396744,-0.376121,0
285,3348161313,-0.644261,0.047279,-0.762416,0.037638,-0.657110,-0.300470,0.092741,0
286,3348177980,-0.643107,0.048415,-0.763374,0.036493,-0.607345,-0.338688,0.483590,0
287,3348194647,-0.641816,0.050155,-0.764443,0.034417,-0.593551,-0.355153,0.634395,0
288,3348211314,-0.640009,0.051853,-0.765932,0.032401,-0.583163,-0.158764,0.707342,0
289,3348227981,-0.637793,0.053471,-0.767756,0.030222,-0.800979,0.067115,0.605499,0
290,3348244648,-0.635164,0.055017,-0.769915,0.027806,-0.876523,0.304154,0.595172,0
291,3348261315,-0.631489,0.056152,-0.772926,0.025645,-1.041750,0.488485,0.442937,0
292,3348277982,-0.626720,0.056906,-0.776808,0.023593,-1.277805,0.420424,0.290169,0
293,3348294649,-0.620675,0.057432,-0.781671,0.021383,-1.346196,0.295312,0.219324,0
294,3348311316,-0.613495,0.057643,-0.787361,0.019118,-1.418013,0.047838,0.044437,0
295,3348327983,-0.604950,0.057703,-0.794005,0.016245,-1.428971,-0.057897,-0.389488,0
296,3348344650,-0.594987,0.057788,-0.801551,0.012976,-1.241059,-0.209250,-0.917479,0
297,3348361317,-0.583779,0.058164,-0.809781,0.008747,-0.993847,-0.534312,-1.626265,0
298,3348377984,-0.570955,0.058743,-0.818873,0.002946,-0.704344,-0.612758,-2.172865,0
299,3348394651,-0.556802,0.060401,-0.828431,-0.005325,-0.437663,-0.884648,-3.467213,0
300,3348411318,-0.541824,0.062541,-0.838041,-0.014300,-0.238805,-0.002483,-4.356737,0
301,3348427985,-0.526343,0.065003,-0.847476,-0.022885,-0.517691,0.504506,-4.645395,0
302,3348444652,-0.511157,0.066848,-0.856335,-0.030687,0.147173,0.969648,-4.635189,0
303,3348461319,-0.495472,0.068244,-0.865151,-0.036974,0.011353,1.332122,-4.263029,0
304,3348477986,-0.480071,0.069232,-0.873508,-0.041525,-0.634922,0.987825,-4.601378,0
305,3348494653,-0.464537,0.069518,-0.881690,-0.044689,-0.468895,0.561293,-4.348357,0
306,3348511320,-0.449540,0.068657,-0.889408,-0.046424,1.082339,-0.022159,-3.237889,0
307,3348527987,-0.434950,0.067519,-0.896658,-0.047609,1.118479,-0.573658,-3.527323,0
308,3348544654,-0.421236,0.066148,-0.903245,-0.048335,0.884856,-0.619005,-3.318799,0
309,3348561321,-0.408243,0.065767,-0.909194,-0.048805,1.057486,-0.250111,-2.767092,0
310,3348577988,-0.396316,0.066229,-0.914470,-0.047907,1.284981,0.396942,-2.070249,0
311,3348594655,-0.385157,0.066787,-0.919281,-0.046029,1.189040,0.327699,-1.202578,0
312,3348611322,-0.374567,0.066688,-0.923739,-0.044285,1.058699,-0.271004,-0.656734,0
313,3348627989,-0.364849,0.066033,-0.927735,-0.042827,1.144254,-0.717286,-0.126207,0
314,3348644656,-0.355878,0.065596,-0.931276,-0.042140,1.205901,-0.632287,0.332381,0
315,3348661323,-0.347849,0.065565,-0.934331,-0.041599,1.155227,-0.318283,1.082395,0
316,3348677990,-0.340700,0.065375,-0.936997,-0.041105,0.976121,-0.165453,1.458237,0
317,3348694657,-0.334478,0.064929,-0.939289,-0.040593,1.040394,0.052478,1.927492,0
318,3348711324,-0.329203,0.064696,-0.941223,-0.039256,0.986016,0.322271,2.381184,0
319,3348727991,-0.324834,0.064640,-0.942804,-0.037781,0.550141,0.311042,2.628332,0
320,3348744658,-0.321005,0.064809,-0.944143,-0.036769,0.921988,0.030839,3.442969,0
321,3348761325,-0.317717,0.065113,-0.945262,-0.036022,1.050294,-0.277801,3.926672,0
322,3348777992,-0.315030,0.065546,-0.946158,-0.035310,0.842170,-0.038464,4.460478,0
323,3348794659,-0.312877,0.066067,-0.946856,-0.034779,0.675335,0.072262,4.789288,0
324,3348811326,-0.311308,0.066515,-0.947362,-0.034226,0.768782,0.157746,5.266086,0
325,3348827993,-0.310555,0.066917,-0.947603,-0.033597,0.838952,0.327332,5.442439,0
326,3348844660,-0.310476,0.067229,-0.947622,-0.033152,0.752281,0.403288,5.689854,0
327,3348861327,-0.310951,0.067388,-0.947464,-0.032912,0.804498,0.330409,5.822279,0
328,3348877994,-0.311959,0.067399,-0.947130,-0.032963,0.775993,0.162269,5.917061,0
329,3348894661,-0.313475,0.067237,-0.946631,-0.033223,0.832480,0.362023,5.874019,0
330,3348911328,-0.315487,0.066896,-0.945973,-0.033630,0.822405,0.412391,5.747173,0
331,3348927995,-0.317993,0.066414,-0.945152,-0.034050,0.616879,0.419671,5.343086,0
332,3348944662,-0.321174,0.065899,-0.944094,-0.034555,0.512424,0.255300,4.907089,0
333,3348961329,-0.325154,0.065393,-0.942747,-0.035065,0.365275,0.239967,4.241778,0
334,3348977996,-0.329987,0.064880,-0.941087,-0.035437,0.469306,0.256971,3.752763,0
335,3348994663,-0.335537,0.064445,-0.939134,-0.035929,0.462831,0.106506,3.169655,0
336,3349011330,-0.341891,0.064138,-0.936850,-0.036211,0.671012,0.107597,2.614128,0
337,3349027997,-0.349300,0.063941,-0.934134,-0.036024,0.705785,0.075624,2.021672,0
338,3349044664,-0.357211,0.063796,-0.931166,-0.035548,0.968422,0.302411,1.687996,0
339,3349061331,-0.365679,0.063737,-0.927899,-0.034954,0.924914,0.175852,1.056914,0
340,3349077998,-0.374853,0.063969,-0.924241,-0.034267,0.812052,-0.006117,0.354765,0
341,3349094665,-0.384227,0.064190,-0.920395,-0.033523,1.327122,0.171253,0.141412,0
342,3349111332,-0.394343,0.064518,-0.916118,-0.032567,0.836118,-0.047741,-0.952437,0
343,3349127999,-0.404660,0.064821,-0.911630,-0.031333,1.064362,0.123955,-1.122909,0
344,3349144666,-0.415692,0.065019,-0.906686,-0.029919,0.802114,0.242866,-1.901728,0
345,3349161333,-0.427031,0.065013,-0.901441,-0.028719,0.854723,0.238393,-2.276351,0
346,3349178000,-0.438714,0.064942,-0.895854,-0.027591,0.774129,0.159944,-2.772422,0
347,3349194667,-0.450634,0.064900,-0.889959,-0.026303,0.606099,0.294283,-3.155638,0
348,3349211334,-0.462662,0.064924,-0.883803,-0.024977,0.707437,0.232875,-3.350218,0
349,3349228001,-0.474690,0.065061,-0.877437,-0.023326,0.319719,0.226869,-3.629246,0
350,3349244668,-0.486732,0.065295,-0.870837,-0.021773,0.037179,0.127873,-4.025445,0
351,3349261335,-0.498411,0.065775,-0.864205,-0.020315,0.006786,0.188362,-4.241855,0
352,3349278002,-0.510254,0.065681,-0.857320,-0.018191,-0.182053,0.292277,-4.092643,0
353,3349294669,-0.521714,0.065691,-0.850439,-0.015954,-0.321644,0.085843,-3.872303,0
354,3349311336,-0.532517,0.065409,-0.843774,-0.013962,-0.582121,0.117762,-3.614659,0
355,3349328003,-0.542982,0.065149,-0.837142,-0.011062,-0.471726,0.051087,-3.177600,0
356,3349344670,-0.552795,0.064867,-0.830750,-0.008162,-0.814080,-0.060641,-3.106780,0
357,3349361337,-0.562173,0.064467,-0.824486,-0.005560,-0.890781,0.136735,-2.622068,0
358,3349378004,-0.570864,0.063875,-0.818552,-0.003107,-1.078736,0.060255,-2.190285,0
359,3349394671,-0.579068,0.063372,-0.812813,-0.000821,-1.055532,0.043432,-1.591228,0
360,3349411338,-0.586607,0.062821,-0.807432,0.001442,-1.118249,0.028032,-0.979287,0
361,3349428005,-0.593631,0.062076,-0.802334,0.003311,-0.972893,0.246226,-0.626285,0
362,3349444672,-0.600037,0.061346,-0.797602,0.005074,-0.689114,0.135150,-0.101947,0
363,3349461339,-0.605757,0.060623,-0.793307,0.007028,-0.522272,0.090177,0.194667,0
364,3349478006,-0.611031,0.059855,-0.789291,0.009024,-0.317871,0.044430,-0.030629,0
365,3349494673,-0.616277,0.058788,-0.785253,0.011288,-0.065834,0.180345,0.376738,0
366,3349511340,-0.621319,0.057492,-0.781319,0.014141,-0.395460,0.238189,-0.009198,0
367,3349528007,-0.625452,0.056432,-0.778049,0.016354,-0.356979,0.152882,0.321850,0
368,3349544674,-0.629497,0.055134,-0.774825,0.018494,-0.125348,0.001723,0.281864,0
369,3349561341,-0.633491,0.053592,-0.771603,0.021180,-0.415814,0.004860,-0.518437,0
370,3349578008,-0.637102,0.052314,-0.768642,0.023581,-0.457888,-0.097473,-0.013259,0
371,3349594675,-0.640660,0.050806,-0.765703,0.025971,-0.305915,-0.322460,-0.030003,0
372,3349611342,-0.644012,0.049518,-0.762892,0.028200,-0.618113,-0.153955,-0.102474,0
373,3349628009,-0.647151,0.048404,-0.760236,0.029951,-0.403832,-0.359746,0.048785,0
374,3349644676,-0.650254,0.047370,-0.757589,0.031419,-0.423321,-0.211231,-0.018144,0
375,3349661343,-0.653174,0.046444,-0.755074,0.032738,-0.368314,-0.238037,-0.025486,0
376,3349678010,-0.655983,0.045672,-0.752624,0.034053,-0.493196,-0.128060,-0.029462,0
377,3349694677,-0.658445,0.045004,-0.750476,0.034820,-0.388561,-0.032273,0.173314,0
378,3349711344,-0.660762,0.044219,-0.748454,0.035450,-0.327112,0.035197,0.161236,0
379,3349728011,-0.662926,0.043350,-0.746551,0.036244,-0.300960,-0.003229,0.121346,0
380,3349744678,-0.664801,0.042594,-0.744892,0.036925,-0.475980,0.051496,0.327641,0
381,3349761345,-0.666519,0.041808,-0.743369,0.037527,-0.301889,-0.009971,0.326967,0
382,3349778012,-0.668030,0.041061,-0.742018,0.038232,-0.315130,-0.006914,0.226508,0