sep=,
DeviceTag:,ydt
FirmwareVersion:,2.0.0
AppVersion:,2021.0
SyncStatus:,Synced
OutputRate:,60Hz
FilterProfile:,General
Measurement Mode:,Sensor fusion Mode - Extended(Quaternion)
StartTime: ,2021-08-20_20:21:13_839 GMT+8
© Xsens Technologies B. V. 2005-2021

PacketCounter,SampleTimeFine,Quat_W,Quat_X,Quat_Y,Quat_Z,FreeAcc_X,FreeAcc_Y,FreeAcc_Z,Status
1,3343444552,0.455677,-0.516383,0.443556,0.573550,0.012660,0.013815,0.077197,0
2,3343461219,0.455743,-0.516318,0.443618,0.573506,-0.016172,-0.010939,0.067403,0
3,3343477886,0.455855,-0.516218,0.443712,0.573436,-0.022386,-0.010553,0.063201,0
4,3343494553,0.455954,-0.516151,0.443828,0.573327,0.033076,0.011999,0.063936,0
5,3343511220,0.456134,-0.516008,0.443953,0.573216,0.064309,0.050620,0.070436,0
6,3343527887,0.456246,-0.515940,0.443997,0.573153,0.052655,0.019529,0.098183,0
7,3343544554,0.456330,-0.515899,0.444076,0.573063,0.035325,0.037243,0.096105,0
8,3343561221,0.456398,-0.515862,0.444118,0.573009,0.023788,0.020744,0.090692,0
9,3343577888,0.456466,-0.515806,0.444133,0.572994,0.047288,0.051146,0.094169,0
10,3343594555,0.456563,-0.515700,0.444152,0.572997,0.051689,0.057045,0.089870,0
11,3343611222,0.456635,-0.515640,0.444229,0.572935,0.057067,0.046296,0.077122,0
12,3343627889,0.456703,-0.515593,0.444301,0.572867,0.067421,0.031887,0.075832,0
13,3343644556,0.456738,-0.515579,0.444360,0.572806,0.050156,-0.007492,0.066375,0
14,3343661223,0.456783,-0.515569,0.444365,0.572774,0.057550,0.011921,0.057161,0
15,3343677890,0.456765,-0.515600,0.444358,0.572766,0.025124,0.033568,0.096129,0
16,3343694557,0.456835,-0.515528,0.444391,0.572750,-0.000116,0.041963,0.074473,0
17,3343711224,0.456990,-0.515365,0.444510,0.572681,0.003261,0.023092,0.081511,0
18,3343727891,0.457133,-0.515220,0.444656,0.572584,0.000313,0.001960,0.071102,0
19,3343744558,0.457198,-0.515143,0.444702,0.572565,0.019490,0.002200,0.077069,0
20,3343761225,0.457181,-0.515144,0.444718,0.572566,0.023817,-0.006280,0.077654,0
21,3343777892,0.457211,-0.515110,0.444737,0.572558,0.023138,0.031541,0.066994,0
22,3343794559,0.457294,-0.515042,0.444787,0.572513,0.035672,0.004530,0.071731,0
23,3343811226,0.457369,-0.514994,0.444868,0.572434,0.045618,0.023336,0.074821,0
24,3343827893,0.457452,-0.514926,0.444904,0.572402,0.019093,0.032650,0.083606,0
25,3343844560,0.457489,-0.514882,0.444899,0.572414,-0.012902,0.038213,0.075923,0
26,3343861227,0.457513,-0.514844,0.444900,0.572428,0.037352,0.050201,0.080941,0
27,3343877894,0.457530,-0.514825,0.444963,0.572383,0.052618,0.045432,0.065220,0
28,3343894561,0.457540,-0.514818,0.445000,0.572352,0.052320,0.069783,0.072645,0
29,3343911228,0.457538,-0.514819,0.444994,0.572358,0.054677,0.053629,0.092651,0
30,3343927895,0.457550,-0.514792,0.444990,0.572376,0.035816,0.033221,0.076141,0
31,3343944562,0.457547,-0.514782,0.444987,0.572390,0.091703,0.019411,0.085227,0
32,3343961229,0.457507,-0.514811,0.444938,0.572434,0.105322,0.042163,0.079101,0
33,3343977896,0.457431,-0.514910,0.444837,0.572485,0.070440,0.073626,0.070654,0
34,3343994563,0.457407,-0.514960,0.444789,0.572495,0.029555,0.111871,0.082960,0
35,3344011230,0.457399,-0.514983,0.444759,0.572504,0.017729,0.086502,0.088599,0
36,3344027897,0.457363,-0.515032,0.444742,0.572502,0.069255,0.037455,0.075768,0
37,3344044564,0.457317,-0.515089,0.444665,0.572547,0.096636,0.037801,0.079224,0
38,3344061231,0.457225,-0.515194,0.444528,0.572633,0.067713,0.025959,0.093538,0
39,3344077898,0.457130,-0.515304,0.444373,0.572730,0.043497,0.081196,0.100826,0
40,3344094565,0.456985,-0.515457,0.444207,0.572837,0.018311,0.049297,0.086019,0
41,3344111232,0.456839,-0.515611,0.444066,0.572924,0.028202,0.021094,0.084027,0
42,3344127899,0.456706,-0.515751,0.443922,0.573016,0.022069,0.003821,0.087146,0
43,3344144566,0.456548,-0.515906,0.443740,0.573142,0.047631,0.024567,0.064729,0
44,3344161233,0.456389,-0.516091,0.443543,0.573255,0.022370,0.025871,0.055371,0
45,3344177900,0.456248,-0.516234,0.443327,0.573406,0.006329,0.044270,0.087040,0
46,3344194567,0.456060,-0.516379,0.443148,0.573564,0.003688,0.006884,0.093141,0
47,3344211234,0.455820,-0.516537,0.442968,0.573751,0.017204,0.081042,0.102641,0
48,3344227901,0.455601,-0.516684,0.442881,0.573860,0.013671,0.078787,0.075042,0
49,3344244568,0.455403,-0.516820,0.442766,0.573983,-0.010159,-0.020244,0.052031,0
50,3344261235,0.455172,-0.516999,0.442617,0.574120,-0.013596,-0.003319,0.103033,0
51,3344277902,0.454974,-0.517143,0.442533,0.574212,-0.005051,0.052946,0.108582,0
52,3344294569,0.454736,-0.517337,0.442368,0.574353,0.032881,0.037822,0.052823,0
53,3344311236,0.454538,-0.517510,0.442213,0.574473,-0.014098,0.075109,0.053576,0
54,3344327903,0.454410,-0.517593,0.442098,0.574589,-0.039113,0.039227,0.058296,0
55,3344344570,0.454296,-0.517668,0.442015,0.574675,-0.034569,-0.004261,0.110551,0
56,3344361237,0.454154,-0.517799,0.441933,0.574732,0.031851,0.037861,0.062259,0
57,3344377904,0.454103,-0.517848,0.441893,0.574759,0.037946,0.103634,0.049859,0
58,3344394571,0.454078,-0.517868,0.441809,0.574825,-0.003946,-0.020803,0.070428,0
59,3344411238,0.453980,-0.517981,0.441702,0.574883,-0.046812,-0.031787,0.133447,0
60,3344427905,0.453850,-0.518132,0.441703,0.574849,-0.030176,0.026028,0.132882,0
61,3344444572,0.453723,-0.518261,0.441691,0.574843,0.000002,0.076221,0.054614,0
62,3344461239,0.453577,-0.518386,0.441595,0.574918,0.009658,0.117853,0.074224,0
63,3344477906,0.453521,-0.518417,0.441612,0.574922,-0.028136,0.054754,0.088191,0
64,3344494573,0.453477,-0.518425,0.441670,0.574905,-0.006370,-0.064826,0.071729,0
65,3344511240,0.453443,-0.518460,0.441699,0.574877,0.076474,-0.012959,0.072158,0
66,3344527907,0.453405,-0.518509,0.441667,0.574887,0.057055,0.061148,0.044901,0
67,3344544574,0.453406,-0.518509,0.441681,0.574876,0.018770,0.056686,0.083851,0
68,3344561241,0.453429,-0.518477,0.441685,0.574883,-0.011873,0.025992,0.117848,0
69,3344577908,0.453409,-0.518495,0.441708,0.574866,0.017172,0.016490,0.088917,0
70,3344594575,0.453369,-0.518534,0.441677,0.574886,0.019129,0.032629,0.051333,0
71,3344611242,0.453332,-0.518580,0.441595,0.574936,0.062888,0.049062,0.055461,0
72,3344627909,0.453343,-0.518573,0.441560,0.574960,-0.021984,0.005189,0.085310,0
73,3344644576,0.453299,-0.518616,0.441526,0.574984,-0.021439,0.000151,0.106992,0
74,3344661243,0.453251,-0.518678,0.441492,0.574992,-0.023670,0.018683,0.060692,0
75,3344677910,0.453311,-0.518634,0.441494,0.574982,-0.004315,0.033572,0.072133,0
76,3344694577,0.453398,-0.518591,0.441510,0.574939,-0.039283,-0.044502,0.096225,0
77,3344711244,0.453426,-0.518613,0.441538,0.574877,-0.016234,-0.002294,0.085180,0
78,3344727911,0.453479,-0.518630,0.441574,0.574792,0.001115,0.046290,0.057837,0
79,3344744578,0.453597,-0.518606,0.441619,0.574686,-0.010795,0.038869,0.073337,0
80,3344761245,0.453736,-0.518573,0.441659,0.574574,-0.042687,0.007818,0.074952,0
81,3344777912,0.453989,-0.518440,0.441744,0.574430,-0.030993,0.049516,0.090148,0
82,3344794579,0.454231,-0.518322,0.441834,0.574275,0.006706,0.009502,0.106931,0
83,3344811246,0.454391,-0.518307,0.441866,0.574137,0.024341,0.103337,0.063532,0
84,3344827913,0.454613,-0.518249,0.441886,0.573999,0.022679,0.093165,0.063094,0
85,3344844580,0.454841,-0.518245,0.441985,0.573746,0.011766,0.015491,0.094776,0
86,3344861247,0.455084,-0.518265,0.442067,0.573472,0.059412,0.043952,0.080135,0
87,3344877914,0.455346,-0.518289,0.442145,0.573182,0.060130,0.075140,0.076892,0
88,3344894581,0.455681,-0.518299,0.442255,0.572822,0.070331,0.086195,0.078691,0
89,3344911248,0.456043,-0.518297,0.442407,0.572418,0.060778,0.044924,0.097184,0
90,3344927915,0.456448,-0.518273,0.442621,0.571952,-0.005413,0.088595,0.085415,0
91,3344944582,0.456851,-0.518241,0.442803,0.571517,-0.037819,0.074816,0.097313,0
92,3344961249,0.457229,-0.518209,0.442880,0.571184,-0.030647,0.029811,0.095584,0
93,3344977916,0.457534,-0.518215,0.442957,0.570875,-0.023812,0.025718,0.074947,0
94,3344994583,0.457728,-0.518281,0.442961,0.570657,-0.013253,0.014881,0.061534,0
95,3345011250,0.457799,-0.518439,0.442912,0.570494,-0.070357,-0.014688,0.059347,0
96,3345027917,0.457819,-0.518621,0.442848,0.570362,-0.064730,-0.017616,0.048865,0
97,3345044584,0.457806,-0.518779,0.442745,0.570309,-0.081016,-0.080690,0.055686,0
98,3345061251,0.457664,-0.519006,0.442468,0.570431,-0.024437,-0.129137,0.074413,0
99,3345077918,0.457654,-0.519081,0.442332,0.570476,-0.033698,0.041663,0.073820,0
100,3345094585,0.457768,-0.519032,0.442344,0.570421,-0.133588,0.081667,0.096459,0
101,3345111252,0.457701,-0.519120,0.442198,0.570507,-0.072329,-0.061948,0.049233,0
102,3345127919,0.457608,-0.519228,0.442026,0.570616,-0.000935,-0.028553,0.052879,0
103,3345144586,0.457567,-0.519302,0.441929,0.570657,0.006094,0.028134,0.103951,0
104,3345161253,0.457466,-0.519417,0.441774,0.570754,0.015548,0.024448,0.086618,0
105,3345177920,0.457335,-0.519584,0.441611,0.570833,-0.001367,0.069856,0.088844,0
106,3345194587,0.457309,-0.519645,0.441528,0.570863,-0.002836,0.037542,0.072100,0
107,3345211254,0.457424,-0.519595,0.441517,0.570825,0.007996,0.026145,0.063789,0
108,3345227921,0.457629,-0.519512,0.441532,0.570724,0.024956,0.015405,0.083858,0
109,3345244588,0.457792,-0.519497,0.441559,0.570586,0.020741,0.063422,0.095819,0
110,3345261255,0.458010,-0.519400,0.441597,0.570469,0.054999,0.070834,0.077486,0
111,3345277922,0.458228,-0.519340,0.441538,0.570396,0.078757,0.062373,0.070525,0
112,3345294589,0.458441,-0.519303,0.441491,0.570294,0.089903,0.049810,0.088651,0
113,3345311256,0.458663,-0.519311,0.441430,0.570155,0.077986,0.004294,0.091270,0
114,3345327923,0.458930,-0.519316,0.441396,0.569962,0.084927,0.049281,0.095470,0
115,3345344590,0.459186,-0.519372,0.441353,0.569738,0.069281,0.039190,0.094438,0
116,3345361257,0.459437,-0.519487,0.441239,0.569519,0.100390,0.060442,0.073354,0
117,3345377924,0.459718,-0.519695,0.441026,0.569268,0.110758,0.054818,0.051922,0
118,3345394591,0.460217,-0.519872,0.440719,0.568941,0.085247,0.100460,0.080936,0
119,3345411258,0.460933,-0.520071,0.440348,0.568466,0.025582,0.125788,0.096702,0
120,3345427925,0.461974,-0.520254,0.439813,0.567868,-0.014959,0.228253,0.050193,0
121,3345444592,0.463395,-0.520432,0.439116,0.567086,-0.032538,0.294736,0.052814,0
122,3345461259,0.465235,-0.520668,0.438152,0.566107,-0.027631,0.300081,0.041323,0
123,3345477926,0.467499,-0.520955,0.437132,0.564765,-0.075682,0.307579,0.071680,0
124,3345494593,0.469821,-0.521671,0.435941,0.563096,-0.062201,0.180447,-0.052814,0
125,3345511260,0.472495,-0.522594,0.434409,0.561183,-0.100613,0.056834,-0.048185,0
126,3345527927,0.475235,-0.523903,0.432604,0.559039,-0.144246,-0.167198,-0.123349,0
127,3345544594,0.477945,-0.525624,0.430549,0.556695,-0.199551,-0.237370,-0.209970,0
128,3345561261,0.480671,-0.527748,0.428086,0.554232,-0.142905,-0.302023,-0.298331,0
129,3345577928,0.483188,-0.530264,0.424924,0.552071,-0.078780,-0.351208,-0.216185,0
130,3345594595,0.485789,-0.533058,0.421404,0.549791,-0.247808,-0.237373,-0.160439,0
131,3345611262,0.488441,-0.535828,0.417451,0.547760,-0.344052,-0.101716,-0.148545,0
132,3345627929,0.491386,-0.538807,0.412480,0.545967,-0.353723,-0.504383,-0.490890,0
133,3345644596,0.493839,-0.542738,0.406632,0.544244,-0.625964,-0.383274,-0.356939,0
134,3345661263,0.496676,-0.546867,0.400255,0.542253,0.034218,0.116513,-0.309757,0
135,3345677930,0.500557,-0.550489,0.393149,0.540214,-0.012895,-0.419932,-0.045714,0
136,3345694597,0.503413,-0.556221,0.384326,0.538034,0.023355,-0.733941,0.108516,0
137,3345711264,0.506081,-0.562886,0.375395,0.534895,0.499613,-1.299379,-0.118378,0
138,3345727931,0.507889,-0.571327,0.365469,0.531093,0.697514,-1.589642,-0.081545,0
139,3345744598,0.510103,-0.579346,0.355563,0.526993,1.328651,-1.772034,-0.603320,0
140,3345761265,0.511335,-0.588861,0.343863,0.523002,1.683938,-1.288550,-1.098547,0
141,3345777932,0.512643,-0.596925,0.335508,0.517982,-0.844038,-0.257918,1.239236,0
142,3345794599,0.513188,-0.604782,0.331282,0.511001,-1.111971,-1.343474,-0.082494,0
143,3345811266,0.513030,-0.613581,0.325714,0.504205,0.444398,-0.671192,-1.533094,0
144,3345827933,0.516161,-0.620680,0.320452,0.495619,0.097880,-0.377326,-1.353683,0
145,3345844600,0.521473,-0.627152,0.316268,0.484473,-1.604499,-0.419857,-1.553834,0
146,3345861267,0.527857,-0.632669,0.313649,0.471926,-1.712352,0.380600,-1.268088,0
147,3345877934,0.537058,-0.635582,0.311597,0.458808,-0.600069,-0.453392,-0.907815,0
148,3345894601,0.546774,-0.638232,0.307372,0.446334,0.159535,0.354141,-3.024428,0
149,3345911268,0.554786,-0.642274,0.301388,0.434575,1.073090,1.920291,-1.724700,0
150,3345927935,0.563982,-0.644251,0.296910,0.422732,1.180679,1.516034,-1.217999,0
151,3345944602,0.572753,-0.645018,0.292795,0.412516,0.537378,0.618689,-0.187030,0
152,3345961269,0.578326,-0.647678,0.288141,0.403757,0.586925,0.350560,0.770947,0
153,3345977936,0.581179,-0.652110,0.283784,0.395529,0.381353,0.222373,2.397833,0
154,3345994603,0.583040,-0.657182,0.279269,0.387528,-0.392181,0.450995,1.283939,0
155,3346011270,0.586131,-0.660770,0.274947,0.379778,-0.252582,0.606881,-0.081091,0
156,3346027937,0.591295,-0.661958,0.270932,0.372521,-0.045035,0.990788,-0.627349,0
157,3346044604,0.597655,-0.661648,0.266770,0.365866,0.357070,1.631290,0.583323,0
158,3346061271,0.602669,-0.661799,0.262488,0.360424,0.495098,1.579566,2.577296,0
159,3346077938,0.604990,-0.663554,0.258307,0.356307,0.750121,1.777623,3.168005,0
160,3346094605,0.605546,-0.665840,0.254427,0.353881,-0.020302,1.363526,2.813725,0
161,3346111272,0.605713,-0.667482,0.250958,0.352978,-0.374522,1.155203,1.814208,0
162,3346127939,0.607153,-0.666920,0.248528,0.353284,-0.293893,0.646501,1.380545,0
163,3346144606,0.609197,-0.664827,0.247468,0.354453,0.033260,0.671736,2.544606,0
164,3346161273,0.609888,-0.662859,0.247402,0.356988,0.104187,0.484686,3.516453,0
165,3346177940,0.608867,-0.661318,0.248290,0.360951,-0.427819,0.243180,3.429435,0
166,3346194607,0.606584,-0.659693,0.250318,0.366326,-0.711902,0.378320,2.908705,0
167,3346211274,0.604422,-0.656689,0.253383,0.373127,-0.621314,0.309568,2.438698,0
168,3346227941,0.601814,-0.653051,0.257774,0.380644,-0.582559,0.176822,2.332808,0
169,3346244608,0.598621,-0.648984,0.263234,0.388812,-0.416680,-0.098677,2.269227,0
170,3346261275,0.594923,-0.644436,0.269599,0.397590,-0.279461,-0.056014,2.199463,0
171,3346277942,0.590502,-0.639668,0.276695,0.406896,-0.435085,-0.006064,2.010269,0
172,3346294609,0.585559,-0.634635,0.284305,0.416561,-0.680744,0.337904,1.666980,0
173,3346311276,0.579976,-0.629491,0.292342,0.426496,-0.938092,0.724722,0.976029,0
174,3346327943,0.573177,-0.624705,0.300526,0.436908,-0.878494,0.262263,0.086809,0
175,3346344610,0.564682,-0.620542,0.308288,0.448344,-0.780636,0.028950,-0.698155,0
176,3346361277,0.555484,-0.615788,0.316092,0.460784,-0.727103,0.064699,-1.040217,0
177,3346377944,0.546314,-0.609823,0.324335,0.473769,-0.438389,-0.046508,-1.328816,0
178,3346394611,0.537280,-0.602788,0.332815,0.487037,-0.371165,-0.449636,-1.039620,0
179,3346411278,0.529144,-0.595044,0.341406,0.499365,-0.358060,-0.294160,-1.364502,0
180,3346427945,0.520045,-0.587631,0.350037,0.511577,-0.324267,0.233124,-1.350660,0
181,3346444612,0.510852,-0.579376,0.359628,0.523465,0.046995,0.119357,-1.055862,0
182,3346461279,0.503306,-0.568541,0.370119,0.535210,-0.290607,-0.133120,-2.004547,0
183,3346477946,0.495158,-0.558016,0.381191,0.546006,-0.409288,-0.406211,-2.030114,0
184,3346494613,0.488265,-0.548334,0.391526,0.554642,0.168036,0.041820,-2.322863,0
185,3346511280,0.482325,-0.540902,0.400302,0.560837,0.559120,-0.804155,-2.058306,0
186,3346527947,0.476064,-0.534774,0.408409,0.566193,1.433477,-0.939861,-1.415542,0
187,3346544614,0.471245,-0.529539,0.415623,0.569884,1.926889,0.105288,-1.104457,0
188,3346561281,0.467953,-0.526180,0.421107,0.571679,1.650654,-0.040439,-0.475669,0
189,3346577948,0.464962,-0.523744,0.425522,0.573086,1.358605,-0.691725,-0.539990,0
190,3346594615,0.462035,-0.521557,0.429289,0.574636,0.811721,-0.874940,0.110981,0
191,3346611282,0.460395,-0.519653,0.432724,0.575100,0.391645,-0.631874,0.000466,0
192,3346627949,0.459521,-0.517578,0.436622,0.574724,-0.203899,-0.264778,0.641251,0
193,3346644616,0.459792,-0.515055,0.440790,0.573592,-0.590769,0.072468,0.414428,0
194,3346661283,0.460562,-0.512583,0.444859,0.572045,-0.524250,0.413078,0.216621,0
195,3346677950,0.461418,-0.510609,0.447733,0.570877,-0.541139,0.707884,0.276801,0
196,3346694617,0.462106,-0.508989,0.449557,0.570333,-0.662315,0.570873,0.089858,0
197,3346711284,0.462439,-0.508004,0.450736,0.570011,-0.662132,0.466844,0.155276,0
198,3346727951,0.462618,-0.507589,0.451845,0.569357,-0.261077,0.285924,-0.419380,0
199,3346744618,0.462758,-0.507591,0.452372,0.568823,-0.103625,0.125603,-0.168502,0
200,3346761285,0.462600,-0.508188,0.451987,0.568724,0.113205,0.031714,-0.102742,0
201,3346777952,0.462182,-0.509458,0.450964,0.568739,0.091213,-0.101204,-0.181019,0
202,3346794619,0.461874,-0.510800,0.449167,0.569208,-0.232783,-0.388415,-0.166978,0
203,3346811286,0.461497,-0.512597,0.446891,0.569690,-0.475045,-0.436336,0.074791,0
204,3346827953,0.460922,-0.514904,0.444391,0.570030,-0.739366,-0.302175,0.000321,0
205,3346844620,0.460594,-0.517133,0.441566,0.570473,-0.889180,-0.340087,-0.101987,0
206,3346861287,0.460259,-0.519570,0.438398,0.570972,-0.911375,-0.319454,-0.077054,0
207,3346877954,0.460259,-0.522095,0.435314,0.571028,-0.684869,-0.268184,-0.105497,0
208,3346894621,0.461116,-0.524395,0.432613,0.570282,-0.754752,-0.066837,-0.154926,0
209,3346911288,0.463356,-0.525943,0.430446,0.568678,-0.803143,-0.052287,-0.119556,0
210,3346927955,0.466214,-0.527554,0.428302,0.566464,-0.513012,-0.166761,-0.172869,0
211,3346944622,0.469335,-0.529627,0.425584,0.563996,-0.037722,-0.025985,-0.349249,0
212,3346961289,0.473508,-0.531839,0.422277,0.560903,0.757698,0.488416,-0.583944,0
213,3346977956,0.479119,-0.533504,0.418563,0.557329,1.300716,0.844173,-0.189172,0
214,3346994623,0.486328,-0.535467,0.413879,0.552682,2.363234,0.853011,-0.682230,0
215,3347011290,0.494098,-0.538671,0.406148,0.548396,2.742727,-0.041800,-0.721326,0
216,3347027957,0.502945,-0.544092,0.393510,0.544201,2.417871,-1.120197,-1.110090,0
217,3347044624,0.509380,-0.556184,0.375712,0.538540,1.023474,-1.348470,-1.124096,0
218,3347061291,0.513146,-0.570772,0.356051,0.533030,0.055958,-2.043418,-1.016599,0
219,3347077958,0.515516,-0.585087,0.338838,0.526401,-3.433820,-2.306002,-0.392152,0
220,3347094625,0.518213,-0.596357,0.327979,0.517916,-2.762241,-1.004719,-1.665767,0
221,3347111292,0.520281,-0.605690,0.322788,0.508181,-2.225630,-0.328630,-1.224745,0
222,3347127959,0.521203,-0.613850,0.316334,0.501459,0.741677,-2.020871,-0.997942,0
223,3347144626,0.525843,-0.619087,0.309672,0.494285,1.515611,-2.292362,0.013472,0
224,3347161293,0.530328,-0.626139,0.304056,0.483989,-1.782383,-0.571271,1.009723,0
225,3347177960,0.536687,-0.631979,0.298568,0.472673,-2.435743,-1.581147,-0.009171,0
226,3347194627,0.544865,-0.636987,0.294127,0.459186,-1.255082,-0.707331,-1.989980,0
227,3347211294,0.555462,-0.639551,0.290686,0.444896,1.692262,1.062489,-2.685162,0
228,3347227961,0.565999,-0.641413,0.286700,0.431312,2.037164,0.589972,-2.803530,0
229,3347244628,0.574161,-0.644175,0.280894,0.420084,0.974189,1.879436,-1.290246,0
230,3347261295,0.581883,-0.645665,0.275281,0.410783,0.622166,1.068325,0.932987,0
231,3347277962,0.587544,-0.647840,0.270234,0.402569,-0.131075,0.579878,2.777923,0
232,3347294629,0.589737,-0.653221,0.264942,0.394097,-0.385192,0.668207,1.964752,0
233,3347311296,0.591207,-0.659795,0.258879,0.384864,0.026688,1.180456,0.427985,0
234,3347327963,0.594445,-0.664447,0.253062,0.375630,0.413299,1.065387,-0.944088,0
235,3347344630,0.600447,-0.665804,0.247668,0.367182,0.161016,1.031448,-0.809508,0
236,3347361297,0.606710,-0.666326,0.241888,0.359718,0.289349,1.482193,1.055220,0
237,3347377964,0.610401,-0.668427,0.236004,0.353429,0.989643,1.561562,3.372513,0
238,3347394631,0.611315,-0.672050,0.230874,0.348331,0.625451,1.070596,2.887237,0
239,3347411298,0.611790,-0.675300,0.226308,0.344181,0.512192,1.257922,0.896527,0
240,3347427965,0.613093,-0.677101,0.221946,0.341153,0.472925,1.459448,0.553309,0
241,3347444632,0.614998,-0.677474,0.218217,0.339383,0.549121,1.561754,1.646108,0
242,3347461299,0.615884,-0.677838,0.215349,0.338883,0.776021,1.449808,2.515036,0
243,3347477966,0.615713,-0.678124,0.213263,0.339937,0.711019,1.363111,2.822364,0
244,3347494633,0.614945,-0.677917,0.212229,0.342380,0.432551,0.956240,2.611905,0
245,3347511300,0.613956,-0.676874,0.212351,0.346122,-0.038516,0.638165,2.592303,0
246,3347527967,0.612996,-0.674725,0.213787,0.351099,-0.352111,0.340584,2.575698,0
247,3347544634,0.612339,-0.671188,0.216545,0.357281,-0.278391,-0.065207,2.787388,0
248,3347561301,0.611135,-0.667175,0.220580,0.364321,-0.165321,-0.412689,3.161627,0
249,3347577968,0.609326,-0.663027,0.225706,0.371709,-0.413286,-0.466794,3.293720,0
250,3347594635,0.607293,-0.658364,0.232087,0.379315,-0.896356,-0.270840,2.678605,0
251,3347611302,0.604741,-0.653233,0.239675,0.387458,-1.373030,-0.305487,1.704948,0
252,3347627969,0.601581,-0.647396,0.248505,0.396506,-1.475174,-0.389641,1.623581,0
253,3347644636,0.598158,-0.640363,0.258656,0.406488,-1.698869,-0.417012,2.249542,0
254,3347661303,0.594026,-0.632689,0.269616,0.417298,-2.076855,-0.605560,2.723915,0
255,3347677970,0.588441,-0.625308,0.281358,0.428436,-2.032868,-0.873986,2.632127,0
256,3347694637,0.581355,-0.618507,0.293107,0.439951,-2.171048,-1.319245,2.016898,0
257,3347711304,0.572555,-0.612654,0.304140,0.452026,-1.718042,-1.259888,1.050609,0
258,3347727971,0.561992,-0.607038,0.315294,0.465030,-1.198450,-0.974948,-0.146151,0
259,3347744638,0.550520,-0.600956,0.326559,0.478678,-0.380050,-0.528082,-1.421779,0
260,3347761305,0.538374,-0.594541,0.337752,0.492536,0.171750,-0.500697,-2.267459,0
261,3347777972,0.526183,-0.587215,0.348596,0.506739,0.209396,0.189735,-3.117519,0
262,3347794639,0.515491,-0.577593,0.361466,0.519606,0.362663,0.388515,-3.023503,0
263,3347811306,0.506447,-0.566194,0.375485,0.530980,0.384937,0.941058,-3.799795,0
264,3347827973,0.498190,-0.554803,0.389812,0.540407,0.602245,1.175918,-3.945823,0
265,3347844640,0.492721,-0.543210,0.402975,0.547497,0.551013,1.980057,-5.009218,0
266,3347861307,0.488960,-0.533894,0.413467,0.552190,0.898854,0.951217,-3.890923,0
267,3347877974,0.482233,-0.528608,0.421398,0.557173,0.727038,0.245866,-0.901339,0
268,3347894641,0.475536,-0.524289,0.427047,0.562682,1.355877,-0.085480,-1.308779,0
269,3347911308,0.468368,-0.522757,0.429754,0.568033,1.970120,-1.453649,-0.728896,0
270,3347927975,0.460100,-0.522706,0.431311,0.573629,1.831233,-1.933531,-0.330944,0
271,3347944642,0.452355,-0.523337,0.432359,0.578405,1.334044,-1.753938,0.655076,0
272,3347961309,0.447317,-0.523311,0.433732,0.581311,0.480468,-0.950013,1.223534,0
273,3347977976,0.445113,-0.522457,0.436046,0.582040,-0.086095,-0.403824,0.860032,0
274,3347994643,0.445048,-0.520919,0.437995,0.582005,-0.611512,-0.458518,0.037535,0
275,3348011310,0.446640,-0.518993,0.440037,0.580964,-1.255190,-0.072005,0.111042,0
276,3348027977,0.449346,-0.516097,0.443205,0.579046,-1.781619,-0.129647,0.374715,0
277,3348044644,0.452833,-0.512899,0.447025,0.576228,-1.881801,-0.119505,0.115973,0
278,3348061311,0.456999,-0.509843,0.450668,0.572804,-1.258613,0.217869,-0.296745,0
279,3348077978,0.461029,-0.507505,0.453602,0.569324,-0.287213,0.596288,-0.324712,0
280,3348094645,0.464453,-0.506087,0.455542,0.566246,0.447454,0.640558,-0.379352,0
281,3348111312,0.467240,-0.505451,0.456512,0.563735,0.649556,0.170555,-0.278484,0
282,3348127979,0.469303,-0.505291,0.456576,0.562110,0.650894,-0.374068,-0.089971,0
283,3348144646,0.470738,-0.505466,0.456072,0.561161,0.643898,-0.544254,0.193454,0
284,3348161313,0.471874,-0.505872,0.455628,0.560201,0.357421,-0.266623,0.216722,0
285,3348177980,0.472605,-0.506576,0.454755,0.559658,0.099173,-0.057512,0.024129,0
286,3348194647,0.472679,-0.507979,0.453222,0.559567,-0.114368,0.278837,-0.095860,0
287,3348211314,0.472345,-0.510049,0.451069,0.559706,-0.204254,0.497221,-0.127771,0
288,3348227981,0.472450,-0.512218,0.448797,0.559462,-0.196003,0.527017,-0.071842,0
289,3348244648,0.472911,-0.514679,0.445974,0.559072,-0.009836,0.436609,-0.085764,0
290,3348261315,0.473964,-0.517400,0.442001,0.558823,0.359105,0.238891,-0.182475,0
291,3348277982,0.474810,-0.521133,0.436310,0.559108,0.762808,0.342518,-0.321689,0
292,3348294649,0.475765,-0.525813,0.428819,0.559710,1.099985,0.608931,-0.438103,0
293,3348311316,0.476223,-0.531921,0.419754,0.560422,1.159539,0.761340,-0.376190,0
294,3348327983,0.478149,-0.537780,0.410180,0.560278,0.965281,2.064328,-0.648613,0
295,3348344650,0.482498,-0.542512,0.399914,0.559409,0.978199,0.656295,-0.792297,0
296,3348361317,0.486538,-0.550725,0.384612,0.558615,0.560038,-1.436245,-1.323593,0
297,3348377984,0.489211,-0.563827,0.365850,0.555804,-0.203097,-1.370767,-1.330865,0
298,3348394651,0.497249,-0.572669,0.350742,0.549333,-1.277221,-0.573948,-0.866733,0
299,3348411318,0.505585,-0.581510,0.338591,0.539981,-3.322357,-2.963212,-2.060989,0
300,3348427985,0.508658,-0.593288,0.326667,0.531563,-4.723269,-2.153379,-1.481267,0
301,3348444652,0.513234,-0.600386,0.319114,0.523725,-0.861463,-0.843483,-0.833106,0
302,3348461319,0.516902,-0.606528,0.313001,0.516682,-0.609815,-1.812018,-0.128848,0
303,3348477986,0.518152,-0.614594,0.305976,0.510064,1.890693,-0.543162,1.444740,0
304,3348494653,0.522626,-0.621473,0.299248,0.501076,0.106881,-1.995100,1.875635,0
305,3348511320,0.526853,-0.630155,0.292388,0.489727,-0.697469,-3.309280,0.816278,0
306,3348527987,0.532717,-0.638350,0.286344,0.476154,-1.214886,-0.696602,-1.041382,0
307,3348544654,0.540864,-0.644223,0.281713,0.461599,0.822918,1.139442,-3.042776,0
308,3348561321,0.551903,-0.646535,0.278015,0.447323,0.877957,1.541149,-3.869902,0
309,3348577988,0.564193,-0.646445,0.273270,0.434870,0.736099,1.068480,-2.851842,0
310,3348594655,0.573922,-0.647408,0.267520,0.424150,1.599393,0.646040,-0.616980,0
311,3348611322,0.580075,-0.650560,0.261691,0.414483,1.488866,0.613750,1.928593,0
312,3348627989,0.583916,-0.655523,0.256691,0.404271,0.006102,0.382583,2.087887,0
313,3348644656,0.587252,-0.661340,0.251150,0.393295,-0.420283,0.402501,0.385114,0
314,3348661323,0.591575,-0.665917,0.244971,0.382854,-0.041327,0.992794,-0.865730,0
315,3348677990,0.597269,-0.668509,0.238910,0.373204,-0.199588,1.447002,-0.588939,0
316,3348694657,0.603637,-0.669643,0.232725,0.364737,-0.207838,1.557852,0.159817,0
317,3348711324,0.608727,-0.671394,0.226294,0.357023,0.663796,1.270850,1.976933,0
318,3348727991,0.611340,-0.674785,0.219798,0.350157,0.508059,1.093770,2.419197,0
319,3348744658,0.613217,-0.678164,0.213565,0.344154,0.049730,0.958385,1.486279,0
320,3348761325,0.614748,-0.681114,0.207829,0.339072,-0.118858,0.980427,1.073951,0
321,3348777992,0.616103,-0.683509,0.202294,0.335116,-0.332775,0.665026,1.477144,0
322,3348794659,0.617348,-0.685361,0.197533,0.331867,-0.197148,0.466536,1.960775,0
323,3348811326,0.619095,-0.685984,0.193546,0.329668,-0.055550,0.277651,2.445692,0
324,3348827993,0.619556,-0.687155,0.190655,0.328044,-0.338525,0.174708,2.681362,0
325,3348844660,0.618916,-0.688664,0.188709,0.327212,-0.296537,0.018324,2.381680,0
326,3348861327,0.618540,-0.689108,0.187853,0.327479,-0.155480,-0.030098,2.201163,0
327,3348877994,0.618988,-0.687894,0.188296,0.328928,-0.252315,-0.000990,2.579553,0
328,3348894661,0.618765,-0.686541,0.189911,0.331238,-0.548794,0.200319,2.724959,0
329,3348911328,0.617547,-0.685390,0.192682,0.334280,-0.533372,-0.015983,2.559910,0
330,3348927995,0.616128,-0.683599,0.196351,0.338407,-0.573951,0.022334,2.363621,0
331,3348944662,0.614705,-0.681035,0.201012,0.343388,-0.431816,0.141205,2.018663,0
332,3348961329,0.612851,-0.678100,0.206653,0.349115,-0.359423,0.250543,1.734185,0
333,3348977996,0.610787,-0.674609,0.212934,0.355661,-0.284253,0.446527,1.472355,0
334,3348994663,0.608250,-0.670898,0.219830,0.362761,-0.282675,0.530277,1.350009,0
335,3349011330,0.605446,-0.666788,0.227278,0.370361,-0.304629,0.262386,1.164369,0
336,3349027997,0.602402,-0.662242,0.235114,0.378500,-0.318461,0.478987,1.260243,0
337,3349044664,0.598671,-0.657644,0.243358,0.387128,-0.403822,0.365727,1.135235,0
338,3349061331,0.594374,-0.652958,0.251940,0.396088,-0.237016,0.348721,0.691939,0
339,3349077998,0.589536,-0.648385,0.260659,0.405087,-0.479351,0.116163,0.648228,0
340,3349094665,0.584260,-0.643844,0.269789,0.413898,-0.519533,-0.041045,0.225297,0
341,3349111332,0.579116,-0.638696,0.279455,0.422599,-0.338784,0.030347,-0.070722,0
342,3349127999,0.573569,-0.633540,0.289387,0.431155,-0.237954,0.054222,-0.162786,0
343,3349144666,0.567627,-0.628321,0.299106,0.439934,0.050032,0.084238,-0.428540,0
344,3349161333,0.560202,-0.623889,0.308568,0.449127,0.028860,0.345410,-0.619943,0
345,3349178000,0.552242,-0.618992,0.318600,0.458655,-0.130294,0.520021,-0.848607,0
346,3349194667,0.544527,-0.613153,0.328640,0.468532,-0.240898,0.327235,-1.347528,0
347,3349211334,0.537022,-0.606280,0.338357,0.479104,-0.640130,0.471527,-1.246617,0
348,3349228001,0.529511,-0.599016,0.347443,0.489975,-0.391413,0.209440,-1.839321,0
349,3349244668,0.522904,-0.591169,0.357222,0.499476,-0.686270,0.150058,-1.226412,0
350,3349261335,0.518166,-0.581536,0.367323,0.508317,-0.510324,-0.071048,-1.255095,0
351,3349278002,0.513807,-0.571261,0.377456,0.516899,-0.342926,0.167935,-0.918856,0
352,3349294669,0.509484,-0.561514,0.387388,0.524454,0.110135,0.027902,-1.469154,0
353,3349311336,0.504841,-0.552255,0.397346,0.531280,0.413695,-0.093583,-0.990983,0
354,3349328003,0.501916,-0.542806,0.406582,0.536774,0.862910,-0.508602,-1.144014,0
355,3349344670,0.498715,-0.534936,0.414740,0.541398,0.938486,-0.485991,-0.876597,0
356,3349361337,0.495651,-0.529249,0.421561,0.544522,0.948806,-0.725408,-1.301255,0
357,3349378004,0.492278,-0.526002,0.427033,0.546462,0.935253,-0.626651,-0.767217,0
358,3349394671,0.489643,-0.523045,0.432609,0.547280,0.824819,-0.328603,-0.191101,0
359,3349411338,0.488275,-0.520241,0.437243,0.547493,0.987034,0.281356,-0.339410,0
360,3349428005,0.487755,-0.517824,0.441371,0.546936,0.478283,-0.086151,-0.004182,0
361,3349444672,0.487493,-0.515853,0.444932,0.546146,-0.037565,-0.042613,-0.036978,0
362,3349461339,0.486906,-0.514536,0.447515,0.545801,-0.456008,-0.409952,-0.084919,0
363,3349478006,0.485929,-0.513280,0.449993,0.545817,-0.396357,-0.175523,-0.003466,0
364,3349494673,0.484981,-0.511819,0.452479,0.545976,-0.577197,-0.245434,0.329444,0
365,3349511340,0.483755,-0.510614,0.454791,0.546272,-0.284138,-0.365909,0.210645,0
366,3349528007,0.482110,-0.509790,0.456514,0.547058,-0.160448,-0.414727,0.019003,0
367,3349544674,0.479958,-0.509636,0.457506,0.548263,0.004703,-0.299246,-0.092336,0
368,3349561341,0.477345,-0.509721,0.458096,0.549970,-0.099964,-0.105514,-0.104729,0
369,3349578008,0.474519,-0.510108,0.458702,0.551549,0.088659,0.096641,-0.307500,0
370,3349594675,0.471783,-0.510386,0.459131,0.553280,-0.065249,-0.266827,-0.124285,0
371,3349611342,0.469203,-0.510524,0.459749,0.554831,-0.150850,-0.218459,-0.056069,0
372,3349628009,0.466979,-0.510420,0.460375,0.556283,-0.230301,-0.027997,0.031023,0
373,3349644676,0.465056,-0.510123,0.460955,0.557684,-0.218406,0.015847,-0.028735,0
374,3349661343,0.463402,-0.509640,0.461540,0.559017,-0.306415,0.092392,0.207473,0
375,3349678010,0.461764,-0.509251,0.462168,0.560207,-0.186900,0.063155,0.107764,0
376,3349694677,0.460494,-0.508872,0.462880,0.561008,-0.003556,0.144349,-0.041141,0
377,3349711344,0.459534,-0.508400,0.463751,0.561504,0.290381,0.202187,-0.095860,0
378,3349728011,0.458597,-0.508121,0.464226,0.562129,0.374199,0.136009,-0.059672,0
379,3349744678,0.457625,-0.508243,0.464312,0.562740,0.384400,0.188966,0.007993,0
380,3349761345,0.456922,-0.508434,0.464327,0.563127,0.268209,0.307218,-0.013461,0
381,3349778012,0.456607,-0.508563,0.464485,0.563134,0.116463,0.355822,0.146845,0