sep=,
DeviceTag:,yxt
FirmwareVersion:,2.0.0
AppVersion:,2021.0
SyncStatus:,Synced
OutputRate:,60Hz
FilterProfile:,General
Measurement Mode:,Sensor fusion Mode - Extended(Quaternion)
StartTime: ,2021-08-20_20:21:13_823 GMT+8
© Xsens Technologies B. V. 2005-2021

PacketCounter,SampleTimeFine,Quat_W,Quat_X,Quat_Y,Quat_Z,FreeAcc_X,FreeAcc_Y,FreeAcc_Z,Status
1,3343411218,0.306544,-0.587594,0.329953,0.672230,0.032290,0.016276,-0.000294,0
2,3343427885,0.306431,-0.587609,0.329939,0.672275,-0.006414,-0.014929,-0.014016,0
3,3343444552,0.306314,-0.587635,0.329919,0.672316,-0.001236,-0.013716,-0.054405,0
4,3343461219,0.306249,-0.587641,0.329926,0.672337,0.012835,0.012012,-0.031019,0
5,3343477886,0.306209,-0.587657,0.329910,0.672349,0.037759,0.011226,-0.029220,0
6,3343494553,0.306169,-0.587689,0.329923,0.672333,0.029775,0.006665,-0.029459,0
7,3343511220,0.306170,-0.587715,0.329946,0.672298,0.004062,0.036490,-0.010475,0
8,3343527887,0.306233,-0.587713,0.329996,0.672247,0.029377,-0.005882,-0.014482,0
9,3343544554,0.306311,-0.587712,0.330087,0.672168,0.060701,0.012373,-0.026595,0
10,3343561221,0.306373,-0.587705,0.330152,0.672114,0.096988,-0.011129,-0.007368,0
11,3343577888,0.306394,-0.587726,0.330150,0.672086,0.071866,-0.005827,-0.003526,0
12,3343594555,0.306368,-0.587761,0.330121,0.672082,0.040792,0.018360,-0.005960,0
13,3343611222,0.306350,-0.587775,0.330103,0.672087,0.047114,0.000837,-0.045355,0
14,3343627889,0.306360,-0.587777,0.330080,0.672092,0.056509,0.020111,-0.030873,0
15,3343644556,0.306347,-0.587781,0.330067,0.672100,0.091134,-0.000286,-0.029154,0
16,3343661223,0.306323,-0.587778,0.330015,0.672140,0.086665,0.001863,-0.023499,0
17,3343677890,0.306272,-0.587787,0.329962,0.672180,0.050555,-0.001808,-0.030632,0
18,3343694557,0.306219,-0.587794,0.329893,0.672232,0.013735,0.008534,-0.030904,0
19,3343711224,0.306141,-0.587823,0.329815,0.672281,0.018780,0.013221,-0.032301,0
20,3343727891,0.306127,-0.587823,0.329768,0.672310,0.022627,-0.024071,-0.022626,0
21,3343744558,0.306109,-0.587853,0.329695,0.672329,0.011738,-0.012411,-0.014950,0
22,3343761225,0.306075,-0.587881,0.329614,0.672359,0.019137,0.004439,-0.035314,0
23,3343777892,0.306051,-0.587904,0.329545,0.672384,0.027448,0.018861,-0.037643,0
24,3343794559,0.306067,-0.587903,0.329496,0.672401,0.036730,-0.010527,-0.039133,0
25,3343811226,0.306120,-0.587883,0.329470,0.672407,0.039492,0.011637,-0.025451,0
26,3343827893,0.306151,-0.587880,0.329422,0.672420,0.066670,0.008785,-0.000434,0
27,3343844560,0.306148,-0.587889,0.329346,0.672450,0.040139,-0.003129,-0.010544,0
28,3343861227,0.306134,-0.587897,0.329285,0.672480,0.022940,0.037178,-0.019362,0
29,3343877894,0.306164,-0.587873,0.329280,0.672490,0.022146,0.005028,-0.014556,0
30,3343894561,0.306224,-0.587842,0.329288,0.672485,0.044967,0.026730,-0.027176,0
31,3343911228,0.306260,-0.587826,0.329318,0.672467,0.059330,0.033374,-0.012521,0
32,3343927895,0.306263,-0.587815,0.329311,0.672480,0.085887,-0.009514,-0.024602,0
33,3343944562,0.306242,-0.587815,0.329276,0.672507,0.065357,-0.008968,-0.008103,0
34,3343961229,0.306206,-0.587797,0.329250,0.672551,0.048623,-0.007671,-0.014639,0
35,3343977896,0.306177,-0.587755,0.329260,0.672596,0.066911,0.036903,-0.014442,0
36,3343994563,0.306154,-0.587706,0.329282,0.672639,0.090325,0.042198,-0.018619,0
37,3344011230,0.306095,-0.587673,0.329279,0.672695,0.087941,0.015647,-0.010201,0
38,3344027897,0.306017,-0.587663,0.329266,0.672746,0.083356,0.007441,-0.026310,0
39,3344044564,0.305950,-0.587677,0.329273,0.672762,0.059336,0.034313,-0.016277,0
40,3344061231,0.305938,-0.587677,0.329307,0.672750,0.051085,0.044398,-0.022182,0
41,3344077898,0.305944,-0.587657,0.329327,0.672755,0.053245,0.003518,-0.016777,0
42,3344094565,0.305912,-0.587619,0.329373,0.672781,0.050899,0.017299,-0.005608,0
43,3344111232,0.305816,-0.587629,0.329387,0.672808,0.081076,-0.013809,-0.003351,0
44,3344127899,0.305715,-0.587639,0.329337,0.672870,0.068964,-0.011941,-0.022204,0
45,3344144566,0.305639,-0.587644,0.329276,0.672930,0.000956,0.016901,-0.026595,0
46,3344161233,0.305661,-0.587629,0.329248,0.672947,-0.029942,0.029589,-0.021877,0
47,3344177900,0.305769,-0.587555,0.329322,0.672927,-0.041005,0.019979,-0.000531,0
48,3344194567,0.305833,-0.587506,0.329440,0.672883,0.004920,-0.035240,0.018514,0
49,3344211234,0.305848,-0.587451,0.329490,0.672899,0.040639,0.003665,-0.027304,0
50,3344227901,0.305867,-0.587426,0.329548,0.672883,0.081735,0.016355,-0.048651,0
51,3344244568,0.305850,-0.587438,0.329580,0.672865,0.065596,-0.014395,-0.021040,0
52,3344261235,0.305788,-0.587471,0.329574,0.672867,0.053962,0.003013,-0.000220,0
53,3344277902,0.305739,-0.587502,0.329560,0.672869,0.033790,0.036734,-0.004249,0
54,3344294569,0.305698,-0.587555,0.329572,0.672836,-0.035370,0.048472,-0.043938,0
55,3344311236,0.305767,-0.587535,0.329668,0.672776,-0.032232,0.059874,-0.073006,0
56,3344327903,0.305928,-0.587454,0.329816,0.672700,0.005639,-0.004054,-0.034315,0
57,3344344570,0.306028,-0.587420,0.329946,0.672621,0.039258,-0.026761,0.018527,0
58,3344361237,0.306059,-0.587431,0.330053,0.672544,0.081516,0.009538,-0.028998,0
59,3344377904,0.306030,-0.587465,0.330093,0.672508,0.059535,-0.004544,-0.049698,0
60,3344394571,0.306002,-0.587502,0.330112,0.672480,-0.010720,0.024502,-0.031862,0
61,3344411238,0.305992,-0.587536,0.330144,0.672438,0.008580,-0.003658,-0.001520,0
62,3344427905,0.306024,-0.587540,0.330198,0.672394,0.040526,-0.015639,-0.002404,0
63,3344444572,0.306040,-0.587573,0.330204,0.672355,0.046167,0.042441,-0.034773,0
64,3344461239,0.306022,-0.587614,0.330198,0.672330,0.041145,0.009049,-0.044313,0
65,3344477906,0.305983,-0.587642,0.330212,0.672316,0.042182,-0.032153,-0.035675,0
66,3344494573,0.305975,-0.587684,0.330251,0.672264,0.031571,-0.018144,-0.024768,0
67,3344511240,0.306011,-0.587676,0.330307,0.672228,0.035276,-0.035048,-0.054074,0
68,3344527907,0.306047,-0.587642,0.330385,0.672202,0.097467,-0.004779,-0.062294,0
69,3344544574,0.305993,-0.587662,0.330374,0.672215,0.113367,0.030387,-0.027919,0
70,3344561241,0.305928,-0.587669,0.330352,0.672249,0.073934,0.001332,0.006211,0
71,3344577908,0.305889,-0.587668,0.330356,0.672265,0.047507,-0.023595,-0.016295,0
72,3344594575,0.305837,-0.587653,0.330374,0.672294,0.035925,-0.010953,-0.037761,0
73,3344611242,0.305767,-0.587647,0.330354,0.672341,0.038536,0.003142,-0.049563,0
74,3344627909,0.305707,-0.587622,0.330342,0.672395,0.056045,0.002538,-0.018489,0
75,3344644576,0.305721,-0.587590,0.330353,0.672411,0.034044,0.004064,-0.012126,0
76,3344661243,0.305747,-0.587578,0.330347,0.672413,0.004586,-0.015487,-0.037227,0
77,3344677910,0.305747,-0.587554,0.330351,0.672432,0.041095,-0.001427,-0.043295,0
78,3344694577,0.305752,-0.587531,0.330359,0.672447,0.023237,-0.020859,-0.016963,0
79,3344711244,0.305803,-0.587495,0.330386,0.672441,0.011913,-0.003780,-0.031331,0
80,3344727911,0.305858,-0.587462,0.330418,0.672429,0.011126,0.016855,-0.047575,0
81,3344744578,0.305894,-0.587413,0.330456,0.672437,0.021493,0.010149,-0.028530,0
82,3344761245,0.305935,-0.587343,0.330520,0.672449,0.048094,0.015562,-0.020256,0
83,3344777912,0.305981,-0.587285,0.330592,0.672442,0.050218,0.014002,-0.028275,0
84,3344794579,0.306028,-0.587210,0.330661,0.672452,0.059962,-0.009890,-0.014669,0
85,3344811246,0.306049,-0.587129,0.330720,0.672485,0.074184,0.007154,-0.059349,0
86,3344827913,0.306014,-0.587065,0.330755,0.672539,0.086312,0.012811,-0.049309,0
87,3344844580,0.305930,-0.587008,0.330756,0.672626,0.107571,0.008031,-0.021379,0
88,3344861247,0.305731,-0.586992,0.330704,0.672757,0.129672,0.007597,-0.017712,0
89,3344877914,0.305508,-0.587010,0.330625,0.672882,0.099770,0.061607,-0.020369,0
90,3344894581,0.305237,-0.587008,0.330533,0.673051,0.107004,0.036361,-0.048099,0
91,3344911248,0.304991,-0.587053,0.330453,0.673163,0.112921,0.042358,-0.014447,0
92,3344927915,0.304782,-0.587095,0.330355,0.673269,0.080783,0.051312,-0.023730,0
93,3344944582,0.304586,-0.587133,0.330277,0.673363,0.041828,-0.001337,0.003764,0
94,3344961249,0.304334,-0.587178,0.330154,0.673498,0.011502,0.000148,-0.007324,0
95,3344977916,0.304099,-0.587231,0.330018,0.673624,0.010588,-0.000992,-0.026624,0
96,3344994583,0.303868,-0.587322,0.329831,0.673741,-0.015311,-0.013619,-0.039869,0
97,3345011250,0.303631,-0.587428,0.329584,0.673876,-0.009615,-0.021856,-0.043660,0
98,3345027917,0.303402,-0.587565,0.329308,0.673995,-0.038942,-0.043872,-0.034864,0
99,3345044584,0.303211,-0.587707,0.329027,0.674094,-0.060965,-0.087326,-0.008998,0
100,3345061251,0.303066,-0.587865,0.328788,0.674138,-0.103735,-0.050184,0.039687,0
101,3345077918,0.303003,-0.588035,0.328589,0.674116,-0.136917,-0.020353,0.020667,0
102,3345094585,0.303094,-0.588149,0.328521,0.674008,-0.119222,-0.019348,-0.018428,0
103,3345111252,0.303282,-0.588249,0.328505,0.673844,-0.052866,0.006670,-0.046499,0
104,3345127919,0.303501,-0.588348,0.328479,0.673672,0.012823,0.011848,-0.008402,0
105,3345144586,0.303694,-0.588465,0.328420,0.673511,0.044280,-0.026977,-0.019085,0
106,3345161253,0.303857,-0.588590,0.328336,0.673369,0.086255,-0.017121,-0.041142,0
107,3345177920,0.304006,-0.588720,0.328211,0.673249,0.076342,-0.016686,-0.015252,0
108,3345194587,0.304114,-0.588856,0.328074,0.673149,0.072575,0.013087,-0.023962,0
109,3345211254,0.304229,-0.588984,0.327951,0.673044,0.045023,0.021156,-0.059521,0
110,3345227921,0.304356,-0.589087,0.327858,0.672943,0.052144,0.025205,-0.042034,0
111,3345244588,0.304521,-0.589171,0.327763,0.672841,0.051337,0.013199,-0.028469,0
112,3345261255,0.304665,-0.589235,0.327705,0.672747,0.061805,0.003461,-0.021101,0
113,3345277922,0.304791,-0.589283,0.327667,0.672667,0.082521,0.011269,-0.020781,0
114,3345294589,0.304860,-0.589334,0.327604,0.672621,0.103305,0.037188,-0.037228,0
115,3345311256,0.304948,-0.589362,0.327547,0.672585,0.108148,0.005412,-0.032254,0
116,3345327923,0.304996,-0.589371,0.327495,0.672581,0.112607,0.000798,-0.016231,0
117,3345344590,0.304991,-0.589389,0.327394,0.672616,0.131411,-0.008881,-0.016027,0
118,3345361257,0.304895,-0.589419,0.327224,0.672716,0.190678,0.018687,-0.064899,0
119,3345377924,0.304715,-0.589474,0.327037,0.672841,0.294362,0.096717,-0.060651,0
120,3345394591,0.304488,-0.589564,0.326889,0.672936,0.366196,0.180484,-0.030289,0
121,3345411258,0.304147,-0.589631,0.326682,0.673132,0.407483,0.225129,-0.013527,0
122,3345427925,0.303703,-0.589659,0.326530,0.673382,0.400368,0.359180,-0.006779,0
123,3345444592,0.303154,-0.589674,0.326459,0.673651,0.400585,0.358828,0.002158,0
124,3345461259,0.302531,-0.589612,0.326567,0.673932,0.405109,0.356043,0.011195,0
125,3345477926,0.301918,-0.589428,0.326968,0.674173,0.395515,0.270161,0.043250,0
126,3345494593,0.301326,-0.589153,0.327614,0.674365,0.331613,0.144990,0.007786,0
127,3345511260,0.300757,-0.588752,0.328489,0.674544,0.246294,0.116776,0.034546,0
128,3345527927,0.300154,-0.588217,0.329609,0.674733,0.195156,0.023356,-0.035422,0
129,3345544594,0.299476,-0.587638,0.330826,0.674943,0.166238,0.007342,0.022072,0
130,3345561261,0.298631,-0.586998,0.332027,0.675285,0.248768,0.030094,0.014500,0
131,3345577928,0.297623,-0.586270,0.333360,0.675705,0.161931,0.027292,-0.010167,0
132,3345594595,0.296529,-0.585433,0.334529,0.676334,0.215849,-0.001070,-0.181605,0
133,3345611262,0.295403,-0.584633,0.335455,0.677059,0.249730,0.030406,-0.138535,0
134,3345627929,0.293987,-0.583912,0.336274,0.677891,0.046320,-0.165080,-0.075090,0
135,3345644596,0.292440,-0.583086,0.337145,0.678838,-0.155880,-0.031695,-0.083758,0
136,3345661263,0.290926,-0.581958,0.338558,0.679753,0.026659,-0.100262,-0.084609,0
137,3345677930,0.289494,-0.580727,0.340183,0.680605,0.376355,-0.245551,-0.213879,0
138,3345694597,0.287800,-0.579356,0.341717,0.681722,0.429071,-0.329203,-0.150871,0
139,3345711264,0.286336,-0.577621,0.343356,0.682986,0.462197,-0.628898,-0.507475,0
140,3345727931,0.285059,-0.575625,0.345124,0.684313,0.754801,-0.741739,-0.423241,0
141,3345744598,0.283501,-0.573324,0.347063,0.685909,0.981089,-0.702250,-0.378166,0
142,3345761265,0.281325,-0.570648,0.349014,0.688044,1.317554,-0.506161,-0.224320,0
143,3345777932,0.278306,-0.567597,0.350726,0.690919,1.449441,-0.423874,-0.255551,0
144,3345794599,0.275548,-0.564160,0.352397,0.693983,0.737000,-0.777492,-0.202979,0
145,3345811266,0.273324,-0.560486,0.354289,0.696869,-0.455255,-0.975529,-0.181425,0
146,3345827933,0.272070,-0.556272,0.356659,0.699523,-0.739364,-0.762496,-0.036718,0
147,3345844600,0.271672,-0.551487,0.360340,0.701576,-0.753891,-0.023672,0.400653,0
148,3345861267,0.272188,-0.545730,0.365403,0.703258,-0.452078,-0.093654,-0.388410,0
149,3345877934,0.273160,-0.539883,0.370516,0.704717,-0.121148,0.349430,-1.008572,0
150,3345894601,0.274601,-0.534072,0.375351,0.706025,0.366702,0.500339,-0.497211,0
151,3345911268,0.275985,-0.528375,0.380153,0.707201,0.182084,0.184888,0.229395,0
152,3345927935,0.276278,-0.523535,0.383408,0.708928,0.763184,0.463166,-0.433736,0
153,3345944602,0.275421,-0.519665,0.384568,0.711475,0.259590,0.297465,-1.477759,0
154,3345961269,0.273822,-0.516489,0.383834,0.714794,-0.323531,0.129355,-0.600195,0
155,3345977936,0.272211,-0.513403,0.382717,0.718223,-1.231051,0.119430,0.597089,0
156,3345994603,0.271179,-0.510413,0.382347,0.720936,-0.811946,0.140029,1.105625,0
157,3346011270,0.271257,-0.507042,0.383076,0.722896,-0.474165,0.207849,0.863653,0
158,3346027937,0.272030,-0.503754,0.384705,0.724039,0.513060,0.388722,0.386434,0
159,3346044604,0.272208,-0.501121,0.385492,0.725379,0.741401,0.831607,-0.168650,0
160,3346061271,0.270989,-0.499096,0.384603,0.727700,-0.229351,1.417780,-0.075234,0
161,3346077938,0.268726,-0.497882,0.383018,0.730202,-0.605177,1.588801,0.227720,0
162,3346094605,0.266162,-0.497736,0.381451,0.732059,-0.376428,1.315217,0.611768,0
163,3346111272,0.263812,-0.498203,0.380301,0.733189,-0.476171,0.937617,0.778049,0
164,3346127939,0.261769,-0.498421,0.379899,0.733981,-1.506432,0.201759,0.383637,0
165,3346144606,0.260164,-0.498379,0.380505,0.734267,-1.741323,-0.208914,0.131721,0
166,3346161273,0.258670,-0.498802,0.381138,0.734179,-0.959708,-0.106166,0.390424,0
167,3346177940,0.256771,-0.499886,0.380931,0.734215,-0.744207,0.000065,0.525492,0
168,3346194607,0.254309,-0.501660,0.379753,0.734473,-1.154592,0.000059,0.213684,0
169,3346211274,0.251675,-0.503840,0.377870,0.734859,-1.497903,-0.084271,0.280252,0
170,3346227941,0.249506,-0.506236,0.376094,0.734863,-1.495010,-0.236724,0.645286,0
171,3346244608,0.248011,-0.508715,0.374964,0.734234,-1.345410,-0.249676,0.807862,0
172,3346261275,0.247378,-0.511423,0.374485,0.732810,-0.812442,0.115692,0.702209,0
173,3346277942,0.247518,-0.514901,0.373740,0.730704,0.293475,0.697093,0.582635,0
174,3346294609,0.247983,-0.519071,0.371188,0.728895,0.849111,0.610318,0.393777,0
175,3346311276,0.248145,-0.523370,0.366623,0.728075,-1.096720,-0.173166,0.487693,0
176,3346327943,0.248397,-0.527317,0.362038,0.727435,-2.693907,-0.244763,0.789354,0
177,3346344610,0.249000,-0.531435,0.358780,0.725845,-2.591774,-0.428955,0.724588,0
178,3346361277,0.250749,-0.535891,0.356803,0.722936,-1.441610,-0.461331,0.347080,0
179,3346377944,0.253963,-0.540456,0.355447,0.719073,-0.425468,-0.263382,-0.181814,0
180,3346394611,0.258559,-0.544861,0.353970,0.714827,-0.246405,-0.820303,-0.700018,0
181,3346411278,0.263544,-0.549141,0.351709,0.710836,-0.027610,-0.898511,-0.742373,0
182,3346427945,0.268603,-0.553848,0.348769,0.706727,-0.323355,-0.743655,-0.609874,0
183,3346444612,0.273770,-0.558801,0.345584,0.702397,-0.577385,-0.899491,-0.257290,0
184,3346461279,0.278415,-0.563618,0.342107,0.698413,-0.304336,-0.745154,-0.384828,0
185,3346477946,0.282548,-0.568528,0.338472,0.694534,0.223569,-0.375793,-0.624428,0
186,3346494613,0.286784,-0.572704,0.334982,0.691050,1.544437,-0.366535,-0.894621,0
187,3346511280,0.290383,-0.576819,0.331132,0.687974,2.305372,0.037720,-0.963319,0
188,3346527947,0.293389,-0.580385,0.326493,0.685912,2.056312,0.477979,-0.785289,0
189,3346544614,0.295327,-0.583176,0.322085,0.684798,2.094113,0.330264,-1.064179,0
190,3346561281,0.296781,-0.584998,0.318234,0.684415,1.877607,0.243607,-0.473393,0
191,3346577948,0.297168,-0.586195,0.315222,0.684617,1.541232,-0.089955,-0.030626,0
192,3346594615,0.296957,-0.586911,0.313020,0.685105,1.519549,0.030182,0.097019,0
193,3346611282,0.297104,-0.587190,0.311566,0.685465,0.746446,-0.082930,0.179599,0
194,3346627949,0.297507,-0.587081,0.310585,0.685829,0.250966,0.321262,0.377074,0
195,3346644616,0.298077,-0.586881,0.310156,0.685947,0.672325,0.645475,0.343563,0
196,3346661283,0.299063,-0.586479,0.309972,0.685944,0.470491,1.149094,0.209512,0
197,3346677950,0.300006,-0.586172,0.310181,0.685700,-0.154077,0.859631,0.400331,0
198,3346694617,0.300876,-0.585751,0.311161,0.685234,-0.296504,0.327727,0.403865,0
199,3346711284,0.301943,-0.585127,0.312794,0.684555,0.107452,0.361226,0.036115,0
200,3346727951,0.303082,-0.584497,0.314533,0.683793,0.447212,0.459048,-0.345418,0
201,3346744618,0.303721,-0.584076,0.315839,0.683267,0.612527,0.332566,-0.400052,0
202,3346761285,0.303634,-0.583870,0.316723,0.683072,0.508075,0.093930,-0.278155,0
203,3346777952,0.303013,-0.583847,0.317230,0.683132,0.320748,0.039597,-0.286614,0
204,3346794619,0.302094,-0.583942,0.317458,0.683352,0.267442,-0.000547,-0.258077,0
205,3346811286,0.301032,-0.584183,0.317456,0.683615,0.081974,-0.055841,-0.035840,0
206,3346827953,0.299910,-0.584551,0.317280,0.683875,-0.110458,0.095753,-0.033248,0
207,3346844620,0.298879,-0.584978,0.317088,0.684050,-0.190306,0.091305,-0.083404,0
208,3346861287,0.297893,-0.585509,0.316813,0.684155,-0.301916,0.108881,-0.061909,0
209,3346877954,0.297114,-0.586034,0.316652,0.684118,-0.297200,0.086081,-0.153831,0
210,3346894621,0.296571,-0.586386,0.316794,0.683986,-0.098165,0.047038,-0.163466,0
211,3346911288,0.296140,-0.586594,0.317201,0.683806,0.131972,0.016787,-0.065740,0
212,3346927955,0.295639,-0.586653,0.317928,0.683635,0.443878,0.229994,0.018932,0
213,3346944622,0.295037,-0.586519,0.319139,0.683445,0.961601,0.550204,-0.066278,0
214,3346961289,0.294052,-0.586057,0.320903,0.683439,1.365734,0.801375,0.097398,0
215,3346977956,0.292641,-0.585053,0.323551,0.683657,1.875045,1.015181,0.178855,0
216,3346994623,0.290476,-0.583199,0.327680,0.684198,2.484101,1.261209,0.457512,0
217,3347011290,0.288000,-0.580440,0.332781,0.685128,2.985677,0.731610,-0.519098,0
218,3347027957,0.284932,-0.576988,0.337862,0.686837,2.969068,0.011896,-0.124779,0
219,3347044624,0.279641,-0.573500,0.342202,0.689779,1.755304,-0.971819,-0.415705,0
220,3347061291,0.272414,-0.570473,0.344554,0.693997,-0.108839,-1.751966,-1.012788,0
221,3347077958,0.263815,-0.568499,0.344906,0.698748,-1.850102,-1.754851,-1.197464,0
222,3347094625,0.255995,-0.566303,0.344817,0.703468,-2.884305,-1.422380,-0.818704,0
223,3347111292,0.250881,-0.563228,0.346287,0.707048,-2.118634,-1.610792,-0.294117,0
224,3347127959,0.246899,-0.560112,0.348573,0.709796,-1.454616,-1.283127,0.044925,0
225,3347144626,0.245121,-0.556069,0.352248,0.711774,-0.893496,-0.753148,0.220738,0
226,3347161293,0.245890,-0.551228,0.357848,0.712481,-0.699825,-0.342910,0.355301,0
227,3347177960,0.248195,-0.545398,0.364718,0.712685,-0.215130,-1.158053,-0.571030,0
228,3347194627,0.251158,-0.538954,0.370780,0.713421,-0.325283,-1.063745,0.005826,0
229,3347211294,0.253697,-0.532502,0.375941,0.714665,-0.019968,0.126725,-0.047673,0
230,3347227961,0.255409,-0.526509,0.379585,0.716567,2.022321,0.623163,-1.153605,0
231,3347244628,0.255810,-0.521684,0.380748,0.719331,2.162824,0.619785,-1.208540,0
232,3347261295,0.255175,-0.518014,0.379458,0.722881,-0.129877,1.221014,0.350453,0
233,3347277962,0.254425,-0.514523,0.378205,0.726287,-0.538436,1.201185,0.961654,0
234,3347294629,0.254626,-0.511048,0.378495,0.728516,-0.019479,0.492099,0.719005,0
235,3347311296,0.256143,-0.507780,0.379667,0.729658,-0.082467,-0.041054,0.510699,0
236,3347327963,0.257605,-0.504764,0.380935,0.730575,-0.165692,0.248820,0.582066,0
237,3347344630,0.257885,-0.502212,0.381596,0.731888,1.027756,0.809304,0.013047,0
238,3347361297,0.257197,-0.500322,0.380391,0.734050,0.465166,0.928345,-0.317750,0
239,3347377964,0.255846,-0.498854,0.378100,0.736700,-0.634934,1.251519,-0.027674,0
240,3347394631,0.254255,-0.498060,0.375923,0.738898,-0.430779,0.839573,0.228481,0
241,3347411298,0.252500,-0.497225,0.374804,0.740629,-0.851483,0.605795,0.718940,0
242,3347427965,0.250840,-0.496260,0.374865,0.741808,-0.901328,0.681304,0.158010,0
243,3347444632,0.249011,-0.495462,0.375575,0.742599,-0.657956,0.802505,-0.026564,0
244,3347461299,0.246658,-0.494975,0.376216,0.743383,-0.230741,1.008688,-0.031526,0
245,3347477966,0.243504,-0.494826,0.376497,0.744380,-0.122275,0.901977,0.106538,0
246,3347494633,0.239877,-0.495061,0.376682,0.745307,-0.481741,0.492240,0.133942,0
247,3347511300,0.236250,-0.495551,0.376883,0.746038,-0.925143,0.092863,0.483554,0
248,3347527967,0.233081,-0.496341,0.377599,0.746148,-0.972021,0.013555,0.373591,0
249,3347544634,0.230643,-0.497498,0.378520,0.745668,-0.728222,-0.077344,0.360751,0
250,3347561301,0.229265,-0.499207,0.379387,0.744509,0.071723,0.023013,0.573689,0
251,3347577968,0.228794,-0.501494,0.379318,0.743151,0.315787,-0.092586,0.597278,0
252,3347594635,0.228596,-0.503774,0.378120,0.742280,-1.190487,-0.750988,0.585160,0
253,3347611302,0.228403,-0.505278,0.377118,0.741826,-3.330789,-1.465794,0.332265,0
254,3347627969,0.228035,-0.506905,0.376504,0.741141,-3.293585,-1.149126,0.424438,0
255,3347644636,0.228568,-0.509402,0.376238,0.739398,-2.057537,-0.719925,0.906336,0
256,3347661303,0.230321,-0.512534,0.375413,0.737106,-1.839391,0.060519,1.332694,0
257,3347677970,0.233355,-0.516072,0.374374,0.734206,-2.420877,-0.665911,1.693401,0
258,3347694637,0.237119,-0.519975,0.373082,0.730896,-2.788791,-1.537708,1.786803,0
259,3347711304,0.241759,-0.524036,0.371927,0.727054,-2.646346,-1.784954,1.278785,0
260,3347727971,0.247871,-0.528323,0.371117,0.722292,-1.644001,-1.310799,0.588584,0
261,3347744638,0.254952,-0.532682,0.369860,0.717253,-0.635379,-0.718561,-0.327627,0
262,3347761305,0.262404,-0.537006,0.367284,0.712650,0.115437,-0.931702,-1.214185,0
263,3347777972,0.268941,-0.541574,0.363100,0.708890,0.697115,0.002752,-1.388429,0
264,3347794639,0.275517,-0.546239,0.358286,0.705225,0.596904,-0.370825,-1.464233,0
265,3347811306,0.282130,-0.550846,0.353546,0.701409,-0.452536,-0.337818,-1.298003,0
266,3347827973,0.288569,-0.555559,0.349588,0.697043,0.318467,0.602910,-0.817995,0
267,3347844640,0.294794,-0.559817,0.347160,0.692228,1.252932,1.016924,-1.266683,0
268,3347861307,0.299123,-0.564171,0.344156,0.688325,2.164170,1.735658,-1.312070,0
269,3347877974,0.301793,-0.568525,0.340108,0.685584,3.283788,1.735417,-1.648000,0
270,3347894641,0.302568,-0.573004,0.333667,0.684678,3.837024,0.539956,-1.687121,0
271,3347911308,0.301291,-0.576813,0.326780,0.685364,2.464538,-0.460323,-0.326488,0
272,3347927975,0.299015,-0.579280,0.322598,0.686260,1.416495,-1.417412,1.084878,0
273,3347944642,0.297441,-0.580574,0.320637,0.686770,0.674516,-1.121647,0.323980,0
274,3347961309,0.297660,-0.581022,0.319547,0.686804,0.446503,0.212859,-0.027424,0
275,3347977976,0.298804,-0.581073,0.318682,0.686666,0.665836,0.889401,0.224069,0
276,3347994643,0.299887,-0.581129,0.317810,0.686551,0.435681,0.882490,0.402453,0
277,3348011310,0.300907,-0.581037,0.317436,0.686355,0.125824,0.693456,0.593980,0
278,3348027977,0.302383,-0.580551,0.318231,0.685750,-0.009501,0.696395,0.255706,0
279,3348044644,0.304633,-0.579495,0.320198,0.684730,0.016939,0.458687,-0.087143,0
280,3348061311,0.307335,-0.578024,0.322906,0.683493,0.185732,0.367686,-0.321372,0
281,3348077978,0.310064,-0.576510,0.325695,0.682215,0.563956,0.548627,-0.445547,0
282,3348094645,0.312283,-0.575242,0.328029,0.681154,0.824668,0.278572,-0.421515,0
283,3348111312,0.313344,-0.574436,0.329400,0.680686,0.892774,-0.008753,-0.315497,0
284,3348127979,0.313408,-0.574142,0.329731,0.680744,0.908853,-0.229404,-0.236851,0
285,3348144646,0.312808,-0.574206,0.329193,0.681226,0.569626,-0.478471,-0.055607,0
286,3348161313,0.311631,-0.574599,0.328059,0.681981,0.046120,-0.390906,0.005617,0
287,3348177980,0.310300,-0.575089,0.326692,0.682830,-0.167509,-0.071933,-0.010790,0
288,3348194647,0.308844,-0.575672,0.325184,0.683718,-0.065732,0.346154,0.018326,0
289,3348211314,0.307346,-0.576326,0.323684,0.684554,0.251933,0.844981,-0.046497,0
290,3348227981,0.306026,-0.576868,0.322510,0.685242,0.484298,0.973051,0.014253,0
291,3348244648,0.304909,-0.577012,0.322025,0.685847,0.984174,0.582598,0.094481,0
292,3348261315,0.304025,-0.576727,0.322645,0.686188,1.560299,0.551386,0.138133,0
293,3348277982,0.302622,-0.576313,0.323601,0.686705,1.875507,0.403210,0.120143,0
294,3348294649,0.299770,-0.575980,0.324426,0.687845,2.003410,0.583229,0.036222,0
295,3348311316,0.295356,-0.575666,0.324936,0.689774,1.909842,0.986058,0.030891,0
296,3348327983,0.289556,-0.575274,0.325484,0.692298,1.526751,1.334094,0.084392,0
297,3348344650,0.283465,-0.574425,0.326548,0.695017,1.113797,1.587338,0.027625,0
298,3348361317,0.277002,-0.572711,0.328951,0.697898,0.675250,0.992806,0.074025,0
299,3348377984,0.271021,-0.570305,0.332567,0.700498,0.240235,0.454734,-0.623963,0
300,3348394651,0.266127,-0.567307,0.336475,0.702939,-0.773086,-1.018607,-1.128348,0
301,3348411318,0.261928,-0.564438,0.340109,0.705072,-2.161998,-1.589895,-0.919760,0
302,3348427985,0.258275,-0.561622,0.343299,0.707121,-2.135545,-1.784778,-0.627799,0
303,3348444652,0.254796,-0.558766,0.346040,0.709305,-1.108768,-1.778879,-0.523907,0
304,3348461319,0.250558,-0.556513,0.347309,0.711961,0.179268,-0.905498,-0.336168,0
305,3348477986,0.246555,-0.554175,0.347902,0.714887,0.404443,-1.006321,0.014865,0
306,3348494653,0.244070,-0.550728,0.349439,0.717648,-0.537421,-2.142259,0.309019,0
307,3348511320,0.243502,-0.546130,0.352676,0.719768,-1.139702,-1.897574,0.517780,0
308,3348527987,0.245185,-0.541146,0.357619,0.720522,-0.094750,-1.356111,0.234324,0
309,3348544654,0.248406,-0.536306,0.362256,0.720721,1.218153,-0.113888,0.165596,0
310,3348561321,0.250891,-0.532111,0.364800,0.721686,1.468487,0.520622,-0.762039,0
311,3348577988,0.251406,-0.528079,0.365211,0.724255,0.415978,0.783393,-1.411706,0
312,3348594655,0.250533,-0.524317,0.364412,0.727686,-0.521297,0.435648,-0.777586,0
313,3348611322,0.249909,-0.520688,0.363764,0.730823,-0.559392,0.237417,0.604166,0
314,3348627989,0.250549,-0.516759,0.364383,0.733082,-0.130053,-0.188215,1.365324,0
315,3348644656,0.251897,-0.512611,0.366334,0.734558,-0.274028,-0.577110,0.648841,0
316,3348661323,0.252948,-0.508566,0.368016,0.736166,-0.271668,0.613367,-0.036725,0
317,3348677990,0.253246,-0.504963,0.368667,0.738215,0.271300,1.377256,-0.606002,0
318,3348694657,0.252019,-0.502017,0.367987,0.740979,0.218986,1.341964,0.074073,0
319,3348711324,0.250581,-0.499734,0.366728,0.743629,-0.341779,1.197645,-0.055987,0
320,3348727991,0.249180,-0.497970,0.365931,0.745673,-0.585527,0.956482,0.235557,0
321,3348744658,0.247617,-0.496555,0.365403,0.747394,-0.376139,0.689153,0.544420,0
322,3348761325,0.246133,-0.495163,0.365514,0.748752,-0.629928,0.189162,0.387170,0
323,3348777992,0.244661,-0.494130,0.365919,0.749719,-0.734097,0.546955,0.347358,0
324,3348794659,0.243377,-0.493220,0.366498,0.750453,-0.774053,0.344617,0.220799,0
325,3348811326,0.242550,-0.492699,0.367381,0.750631,-0.393615,0.310430,0.128533,0
326,3348827993,0.242043,-0.492379,0.367921,0.750740,-0.538566,-0.235653,0.391023,0
327,3348844660,0.241410,-0.492397,0.368145,0.750823,-0.772106,-0.178216,0.478635,0
328,3348861327,0.240769,-0.492427,0.368275,0.750945,-0.676787,-0.332442,0.052238,0
329,3348877994,0.240526,-0.492675,0.368415,0.750791,-0.685485,-0.107364,-0.039138,0
330,3348894661,0.240556,-0.493187,0.368315,0.750495,-0.920149,-0.335583,0.443993,0
331,3348911328,0.240932,-0.493898,0.368462,0.749833,-1.029737,-0.340040,0.653771,0
332,3348927995,0.241782,-0.494639,0.368824,0.748893,-0.945798,-0.102350,0.468202,0
333,3348944662,0.242824,-0.495578,0.369023,0.747836,-0.838077,0.094207,0.173893,0
334,3348961329,0.243811,-0.496727,0.368964,0.746781,-0.844726,0.194407,-0.006622,0
335,3348977996,0.244495,-0.498170,0.368719,0.745716,-0.915478,0.038079,-0.005684,0
336,3348994663,0.245066,-0.499882,0.368529,0.744476,-0.691934,0.150381,0.093606,0
337,3349011330,0.245697,-0.501919,0.368293,0.743014,-0.628924,0.088039,0.216119,0
338,3349027997,0.246398,-0.504183,0.368084,0.741350,-0.811403,0.213748,0.416669,0
339,3349044664,0.246978,-0.506759,0.367757,0.739561,-0.647425,0.056324,0.414686,0
340,3349061331,0.247726,-0.509594,0.367691,0.737392,-0.692909,0.109161,0.428847,0
341,3349077998,0.248804,-0.512508,0.367702,0.735000,-1.049612,-0.332790,0.481677,0
342,3349094665,0.250275,-0.515358,0.367965,0.732372,-1.209786,-0.623333,0.291055,0
343,3349111332,0.252103,-0.518234,0.368443,0.729470,-1.004202,-0.554089,0.315942,0
344,3349127999,0.254108,-0.521193,0.368787,0.726486,-0.660658,-0.243303,0.248935,0
345,3349144666,0.256115,-0.524133,0.368913,0.723596,-0.296548,0.019158,0.098272,0
346,3349161333,0.258138,-0.527034,0.368821,0.720812,-0.214496,-0.027083,0.102438,0
347,3349178000,0.260311,-0.530122,0.368445,0.717952,-0.268687,0.068655,0.203755,0
348,3349194667,0.262964,-0.533141,0.368130,0.714905,-0.457106,-0.061272,0.043374,0
349,3349211334,0.265837,-0.536373,0.367806,0.711584,-0.469178,0.284393,-0.071514,0
350,3349228001,0.269345,-0.539596,0.367748,0.707848,-0.200087,0.291561,-0.399920,0
351,3349244668,0.272657,-0.543008,0.367306,0.704191,0.127899,0.092566,-0.711063,0
352,3349261335,0.276226,-0.546697,0.366426,0.700394,0.157806,-0.000045,-0.639894,0
353,3349278002,0.280144,-0.550324,0.365453,0.696495,0.339474,-0.143050,-0.340448,0
354,3349294669,0.283577,-0.554036,0.364217,0.692801,1.432625,-0.103736,-0.215083,0
355,3349311336,0.286556,-0.557981,0.362257,0.689427,1.456854,0.194969,-0.546022,0
356,3349328003,0.289155,-0.561980,0.359294,0.686640,1.383593,-0.071097,-0.602612,0
357,3349344670,0.291305,-0.565357,0.356613,0.684353,0.910866,-0.159678,-0.363364,0
358,3349361337,0.292783,-0.567775,0.354802,0.682659,1.106531,-0.367163,-0.513364,0
359,3349378004,0.294370,-0.569212,0.353760,0.681319,1.159610,-0.116101,-0.478498,0
360,3349394671,0.296181,-0.570044,0.352790,0.680341,1.550354,-0.057957,-0.579916,0
361,3349411338,0.297226,-0.570953,0.351757,0.679658,1.578207,0.398365,0.140175,0
362,3349428005,0.297789,-0.571619,0.351335,0.679070,0.929217,0.609295,0.023644,0
363,3349444672,0.298021,-0.572010,0.351142,0.678738,0.549284,0.588053,-0.090407,0
364,3349461339,0.298237,-0.572327,0.351259,0.678315,0.031125,0.294373,-0.014826,0
365,3349478006,0.298507,-0.572588,0.351444,0.677881,-0.565919,-0.052774,0.222103,0
366,3349494673,0.299169,-0.572752,0.351949,0.677188,-0.473632,-0.159774,0.122264,0
367,3349511340,0.300187,-0.572849,0.352631,0.676300,0.047802,-0.136596,0.008533,0
368,3349528007,0.301357,-0.573000,0.353057,0.675429,0.246688,-0.108099,-0.092975,0
369,3349544674,0.302170,-0.573540,0.352902,0.674688,0.155635,-0.124530,-0.026495,0
370,3349561341,0.302669,-0.574228,0.352513,0.674082,0.095574,-0.109341,-0.069730,0
371,3349578008,0.303113,-0.574885,0.352004,0.673588,0.075371,-0.118017,-0.192502,0
372,3349594675,0.303460,-0.575619,0.351431,0.673105,0.088318,0.006752,-0.111690,0
373,3349611342,0.303766,-0.576376,0.350814,0.672640,-0.010476,-0.032800,-0.057582,0
374,3349628009,0.304300,-0.577019,0.350437,0.672044,-0.070789,0.003555,-0.031027,0
375,3349644676,0.305161,-0.577552,0.350230,0.671302,-0.167592,0.115464,-0.047907,0
376,3349661343,0.306307,-0.577952,0.350254,0.670424,-0.066040,-0.041311,-0.066586,0
377,3349678010,0.307535,-0.578282,0.350465,0.669467,0.132172,0.016507,-0.010343,0
378,3349694677,0.308695,-0.578510,0.350805,0.668556,0.449049,0.032870,-0.068992,0
379,3349711344,0.309562,-0.578775,0.351062,0.667791,0.570679,0.188174,-0.093031,0
380,3349728011,0.310086,-0.579041,0.351293,0.667196,0.661416,0.260854,-0.141228,0
381,3349744678,0.310355,-0.579273,0.351562,0.666726,0.548521,0.241862,-0.135738,0
382,3349761345,0.310396,-0.579356,0.351994,0.666408,0.589707,0.150961,-0.078411,0